ACCELEROMETER X (m/s²),ACCELEROMETER Y (m/s²),ACCELEROMETER Z (m/s²),GRAVITY X (m/s²),GRAVITY Y (m/s²),GRAVITY Z (m/s²),LINEAR ACCELERATION X (m/s²),LINEAR ACCELERATION Y (m/s²),LINEAR ACCELERATION Z (m/s²),GYROSCOPE X (rad/s),GYROSCOPE Y (rad/s),GYROSCOPE Z (rad/s),Time since start in ms ,YYYY-MO-DD HH-MI-SS_SSS
5.0087,3.5865,6.0478,3.0025,4.0308,8.4207,2.0062,-0.4442,-2.373,-1.5828,0.6946,-2.416,20,2021-05-14 13:47:51:107
3.0957,5.5929,18.5479,1.8939,2.9892,9.1459,1.2018,2.6037,9.4019,-0.0641,1.7532,0.1222,521,2021-05-14 13:47:51:608
13.5871,-21.6699,0.7638,9.2328,3.1869,-0.8776,22.8759,-0.5101,20.9578,5.5827,0.3622,-6.2577,1022,2021-05-14 13:47:52:109
31.364,-5.3798,14.5974,8.4778,-1.9642,-4.5211,4.7023,23.7443,25.207,6.3249,2.2345,-6.0225,1521,2021-05-14 13:47:52:608
-2.3296,22.6611,21.16,8.3773,-2.7779,-4.2748,1.3718,25.8676,28.1546,0.1894,4.0128,-1.6066,2021,2021-05-14 13:47:53:108
32.1086,2.2122,19.5319,4.5465,-7.7789,3.8714,27.5622,9.9912,15.6605,-0.2401,-5.0836,-0.1723,2521,2021-05-14 13:47:53:608
4.7238,-18.4066,22.2062,5.0955,-7.582,3.5664,16.2475,10.7851,15.9271,-1.2828,-3.292,-2.3366,3021,2021-05-14 13:47:54:108
-9.0573,-16.5631,-1.8627,6.3545,-6.5427,3.6031,5.1014,4.7744,-6.9551,-3.9633,3.0183,-2.1912,3521,2021-05-14 13:47:54:608
10.5752,-12.1362,-12.5289,8.6552,-4.0042,2.2856,-1.6983,-6.3141,5.0587,1.1826,-2.1502,3.1374,4021,2021-05-14 13:47:55:108
6.1076,-11.8968,-8.1499,9.1505,1.0576,3.3645,12.7353,-25.0265,7.7774,2.2119,2.2907,2.1185,4521,2021-05-14 13:47:55:608
22.6324,-33.9881,8.7317,9.4638,2.5659,0.1523,14.6034,-9.2512,15.4922,4.934,-0.2553,-4.521,5021,2021-05-14 13:47:56:108
18.3803,7.2784,15.0643,9.2717,-2.0979,-2.4095,3.9307,22.2235,28.292,2.3011,-3.4282,-4.7965,5521,2021-05-14 13:47:56:608
-4.3814,27.3657,24.7225,9.0827,1.7353,3.2655,-14.8247,23.6529,24.8116,2.6676,4.6297,-2.5375,6020,2021-05-14 13:47:57:107
-14.3149,-2.1907,11.0971,6.1794,5.6537,5.1011,-10.5039,-3.1767,8.1853,-1.6286,-2.7672,-4.3616,6521,2021-05-14 13:47:57:608
15.5384,5.2313,16.8791,4.7346,5.9284,6.2135,10.8491,-0.2576,10.2419,-1.0831,-3.5888,-3.3769,7021,2021-05-14 13:47:58:108
12.7252,8.7197,3.6416,-5.0209,4.8129,6.9135,18.1318,3.665,-2.7918,-2.2052,-1.4752,-0.1051,7521,2021-05-14 13:47:58:608
-5.047,11.4132,15.263,-8.5805,-3.6931,-2.9843,5.084,23.2046,9.9401,-2.3439,2.595,-2.3604,8021,2021-05-14 13:47:59:108
-32.6354,1.7071,-12.5528,-7.8249,-4.8865,-3.3262,-27.6929,3.4724,-9.0913,-3.7764,-0.1234,-2.5436,8523,2021-05-14 13:47:59:610
-10.9726,-21.7417,0.5531,-9.2657,0.7945,-3.1123,-1.7914,-23.3397,3.6062,-2.7678,-2.179,-5.8753,9021,2021-05-14 13:48:00:108
-7.082,-15.1792,-1.6305,-5.2396,7.8141,-2.7672,-0.3771,-29.4891,10.5329,3.6065,-1.3903,5.1698,9521,2021-05-14 13:48:00:608
-16.5894,5.1571,6.699,-8.5938,1.9366,-4.3089,-25.617,-6.9788,-0.5896,7.0469,-3.9266,0.2456,10021,2021-05-14 13:48:01:108
5.0542,20.9229,7.118,-5.9955,-0.1576,-7.7588,4.5518,21.9209,20.1344,-1.6579,0.9053,0.9572,10520,2021-05-14 13:48:01:607
-1.2617,15.0452,5.0063,-6.0074,-0.7633,-7.7136,4.1303,12.4782,11.3863,-2.901,-0.0012,-1.419,11021,2021-05-14 13:48:02:108
-35.7526,-14.1976,-5.4013,-8.3743,-0.3359,-5.092,-27.2107,23.2987,-1.9973,-0.5076,1.8882,-6.2827,11520,2021-05-14 13:48:02:607
-22.7401,-14.0611,1.4341,-3.7425,5.6925,-7.0541,14.2507,-26.5747,-0.1525,1.5583,-3.7458,3.4532,12021,2021-05-14 13:48:03:108
-55.919,23.6332,16.1872,-5.7587,6.6201,-4.3798,-18.4419,-12.7516,-4.7302,2.1032,-3.8949,4.4905,12520,2021-05-14 13:48:03:607
10.7955,16.1417,19.5247,-6.3844,1.662,-7.2559,-12.9775,13.7926,19.926,-1.0953,-3.8833,3.1325,13021,2021-05-14 13:48:04:108
8.3031,4.1875,6.2297,-6.7123,-0.2636,-7.1447,15.0154,4.451,13.3744,-3.5155,2.3366,0.1955,13521,2021-05-14 13:48:04:608
-22.2134,8.2265,-14.2407,-7.695,-2.0094,-5.7376,-14.6094,10.0228,-12.7528,-1.9963,0.6219,-0.7446,14021,2021-05-14 13:48:05:108
0.17,-3.972,-3.9289,-9.2278,1.1795,-3.1028,-4.5462,-6.7521,0.9163,-2.1838,0.8186,-0.1973,14521,2021-05-14 13:48:05:608
-31.874,-2.9042,-0.7901,-9.7157,0.6519,-1.1623,10.531,-5.1087,-6.0532,3.689,-0.8082,0.1607,15021,2021-05-14 13:48:06:108
-23.1424,5.2241,-3.2657,-9.0422,3.5063,-1.4545,-13.9613,2.2263,-1.5651,1.2052,-0.9969,0.5565,15521,2021-05-14 13:48:06:608
0.9074,8.825,5.3606,-9.6179,1.8055,0.6371,13.0292,3.3296,2.9589,1.0421,1.1906,0.4355,16021,2021-05-14 13:48:07:108
-5.2816,4.039,4.4005,-9.3665,2.5812,1.3331,-10.0195,-3.1681,8.0988,-1.7465,0.4184,2.138,16521,2021-05-14 13:48:07:608
-10.477,-4.5705,8.5688,-7.9765,1.6517,5.4606,-5.1688,-3.6654,9.9115,-3.0696,-0.9175,1.3054,17021,2021-05-14 13:48:08:108
-2.0063,3.7804,6.4811,-8.0954,0.812,5.475,5.5656,-2.8367,-3.6198,2.2205,0.1032,-0.9389,17521,2021-05-14 13:48:08:608
0.4836,-3.0215,3.7589,-7.56,6.0227,1.6561,9.8153,-6.1105,-3.403,1.2639,-1.9334,-0.4392,18021,2021-05-14 13:48:09:108
-9.3877,15.4905,-3.7804,-6.8192,7.0476,-0.0244,-2.5951,8.4192,-3.9475,-0.1478,2.1319,-0.1637,18521,2021-05-14 13:48:09:608
-5.2768,7.0078,-3.7134,-4.2976,8.7866,-0.7054,4.9793,5.1153,3.274,1.5333,0.7196,-1.4337,19021,2021-05-14 13:48:10:108
-7.2496,7.8482,4.5897,-6.454,6.6252,-3.2591,-23.1213,-10.0521,4.6112,-1.9297,2.8888,0.1142,19521,2021-05-14 13:48:10:608
0.2227,6.8163,-8.5808,-5.7828,7.858,-0.9908,13.0061,6.5455,-18.7063,-2.7281,-0.4869,2.6011,20021,2021-05-14 13:48:11:108
-32.9682,20.9253,0.7733,-6.6486,7.2022,-0.3086,-14.7819,2.128,10.3331,-1.6921,1.8931,-0.0195,20521,2021-05-14 13:48:11:608
1.408,1.355,1.247,-8.554,4.345,-2.029,13.151,34.376,-1.881,-0.065,-0.85,0.533,21021,2021-05-14 13:48:12:108
-2.502,-4.195,-0.539,-9.035,2.454,-2.919,20.422,-1.036,19.619,-1.478,2.38,-3.421,21521,2021-05-14 13:48:12:608
-17.973,18.371,-7.81,-4.77,8.506,-1.032,-16.91,24.089,-5.566,4.813,2.956,-1.506,22021,2021-05-14 13:48:13:108
0.642,16.199,1.118,5.386,6.76,4.633,-8.632,-6.229,-22.48,1.665,-3.143,-6.762,22521,2021-05-14 13:48:13:608
-7.4,5.686,4.257,4.876,7.636,3.753,-5.743,43.243,-14.692,0.895,-0.293,-1.207,23021,2021-05-14 13:48:14:108
6.397,-28.261,8.727,-1.219,9.09,-3.473,-4.932,-14.752,-1.998,0.695,-0.288,-0.134,23520,2021-05-14 13:48:14:607
-8.543,-9.948,53.712,3.211,9.12,-1.641,9.239,20.135,-22.206,0.462,-3.161,-1.569,24022,2021-05-14 13:48:15:109
-1.666,8.452,-5.562,1.292,8.747,-4.241,-2.958,-0.296,-1.321,0.841,0.016,-2.846,24521,2021-05-14 13:48:15:608
-17.401,37.417,7.269,4.935,8.425,-0.916,-6.948,5.639,-17.759,0.473,3.077,-3.74,25021,2021-05-14 13:48:16:108
-0.893,-2.085,-1.573,5.202,7.902,-2.583,-9.697,-17.56,0.651,0.919,4.112,-2.478,25521,2021-05-14 13:48:16:608
-30.447,57.628,4.829,3.1,8.846,-2.883,-8.786,-3.929,14.877,-5.153,1.135,7.311,26021,2021-05-14 13:48:17:108
-17.521,-5.215,-8.892,-0.802,9.492,-2.331,-15.755,-14.254,-5.525,-2.92,0.477,2.892,26521,2021-05-14 13:48:17:608
14.447,0.172,8.207,-4.742,8.314,-2.136,19.189,-8.141,10.344,-0.334,4.363,1.354,27021,2021-05-14 13:48:18:108
-7.379,35.255,7.412,-5.092,7.087,-4.474,9.415,9.985,6.667,0.794,-2.401,-8.929,27521,2021-05-14 13:48:18:608
-0.702,-7.049,-2.65,1.81,9.537,-1.391,-2.325,-3.82,7.51,1.197,1.902,-0.55,28020,2021-05-14 13:48:19:107
-5.303,16.056,17.528,3.016,9.29,0.876,2.503,49.451,27.981,-3.244,0.034,9.611,28521,2021-05-14 13:48:19:608
10.19,35.528,-4.781,-4.543,8.245,-2.747,-5.049,-19.095,3.076,-5.404,-6.007,4.434,29021,2021-05-14 13:48:20:108
10.116,-13.692,-12.282,-7.525,5.111,-3.665,13.954,-21.616,-7.963,-0.585,4.289,1.012,29521,2021-05-14 13:48:20:608
-15.079,54.708,5.641,-4.481,8.298,-2.687,-12.557,45.566,8.139,2.316,-1.529,-6.815,30021,2021-05-14 13:48:21:108
-2.696,-3.366,-2.16,4.437,8.506,-2.032,1.322,-12.304,0.714,-0.247,-1.206,2.559,30521,2021-05-14 13:48:21:608
5.962,1.269,29.298,-0.07,9.663,-1.674,-13.907,44.968,-1.837,-2.024,1.308,0.548,31021,2021-05-14 13:48:22:108
-14.076,11.454,9.747,-2.479,9.481,-0.364,-11.597,1.973,10.111,0.494,-5.977,-3.826,31521,2021-05-14 13:48:22:608
-23.592,44.839,2.109,-6.49,7.004,-2.235,-0.418,14.302,10.654,-1.172,4.163,-5.87,32021,2021-05-14 13:48:23:108
-2.078,-2.404,-1.324,-3.194,9.143,1.542,-5.859,-19.338,5.594,0.053,-0.997,-2.136,32520,2021-05-14 13:48:23:607
-3.179,8.557,0.148,3.201,8.729,3.119,-8.738,24.225,4.014,-1.826,2.493,3.726,33021,2021-05-14 13:48:24:108
-12.895,11.126,7.817,-4.222,8.767,-1.218,3.17,4.537,-2.226,0.994,-10.68,-1.584,33521,2021-05-14 13:48:24:608
10.106,-17.775,-17.15,-5.145,7.75,-3.105,15.251,-25.524,-14.045,-1.646,5.946,2.497,34021,2021-05-14 13:48:25:108
-7.465,46.929,-28.127,-3.071,8.687,-3.357,-6.209,36.184,3.026,0.331,-5.933,-6.448,34521,2021-05-14 13:48:25:608
-10.048,-5.248,-4.087,1.849,9.631,-0.013,-13.524,-9.458,2.745,0.351,-1.128,2.365,35021,2021-05-14 13:48:26:108
-4.269,-9.998,4.841,-5.293,8.043,-1.861,14.141,7.583,19.149,2.161,-6.428,-5.33,35521,2021-05-14 13:48:26:608
4.956,-0.089,-1.566,-4.348,8.074,-3.475,9.304,-8.162,1.909,-1.764,-4.169,3.944,36021,2021-05-14 13:48:27:108
-20.803,63.59,-3.103,-3.528,8.929,-1.999,8.78,24.433,1.428,-0.481,-5.903,-5.496,36520,2021-05-14 13:48:27:607
-7.745,-11.2,-0.424,3.264,9.025,2.016,-14.616,-17.573,4.81,0.385,-5.695,1.626,37021,2021-05-14 13:48:28:108
-7.08,-5.555,7.496,-3.069,9.266,-0.942,-4.011,-14.821,8.439,-5.317,-1.845,6.249,37521,2021-05-14 13:48:28:608
4.513,24.986,0.199,-3.044,8.409,-4.024,11.925,-24.695,-13.419,-1.439,-7.31,-1.294,38021,2021-05-14 13:48:29:108
29.372,-13.4,18.933,-5.824,6.505,-4.465,35.196,-19.905,23.398,-0.356,6.435,-1.556,38521,2021-05-14 13:48:29:608
-3.448,2.983,1.085,0.451,9.589,-2.007,3.291,28.519,-21.582,2.641,-2.429,-10.296,39021,2021-05-14 13:48:30:108
-5.157,9.871,8.957,2.797,9.399,0.062,2.553,-0.525,-2.086,-0.865,-2.065,4.675,39521,2021-05-14 13:48:30:608
-2.813,13.032,24.608,-4.315,8.132,-3.38,1.501,4.899,27.987,4.493,0.509,1.15,40021,2021-05-14 13:48:31:108
29.949,-22.573,-2.947,-5.717,6.376,-4.778,14.819,-2.983,5.284,-0.415,3.983,0.916,40521,2021-05-14 13:48:31:608
0.563,10.386,-1.894,-2.691,9.073,-2.572,-25.056,70.646,5.932,0.851,-2.917,-6.233,41020,2021-05-14 13:48:32:107
-11.796,-11.25,3.527,1.187,9.732,-0.242,3.034,4.604,-9.493,-0.627,-5.476,1.622,41521,2021-05-14 13:48:32:608
-0.591,-8.004,7.867,-5.465,7.888,-2.021,-13.231,45.912,0.903,-3.134,-2.149,7.666,42021,2021-05-14 13:48:33:108
5.751,37.804,-25.623,-6.506,6.44,-3.517,12.257,31.364,-22.106,-1.715,-4.384,3.59,42521,2021-05-14 13:48:33:608
-4.331,8.339,1.748,-8.568,3.825,-2.851,19.521,-9.804,11.053,-1.643,-1.15,2.313,43021,2021-05-14 13:48:34:108
-11.502,67.191,0.11,-4.893,7.821,-3.325,7.19,24.454,-16.355,4.947,-4.479,-9.103,43521,2021-05-14 13:48:34:608
-5.499,9.335,16.137,1.572,9.677,0.211,-7.072,-0.342,15.926,-1.278,-1.454,4.958,44021,2021-05-14 13:48:35:108
2.919,20.075,28.367,-2.121,9.457,-1.497,-13.214,11.303,-21.099,0.084,4.066,7.252,44520,2021-05-14 13:48:35:607
3.108,24.474,30.038,-5.522,7.55,-2.945,8.629,16.923,32.983,-1.935,-4.262,4.462,45021,2021-05-14 13:48:36:108
5.701,3.373,0.086,-6.071,5.948,-4.892,30.305,-13.497,22.08,-0.437,-1.478,2.137,45521,2021-05-14 13:48:36:608
-10.312,67.145,-0.608,-0.218,9.539,-2.263,5.956,28.701,-22.109,3.934,2.457,-5.085,46021,2021-05-14 13:48:37:108
9.318,13.858,-7.86,2.868,9.372,0.338,7.496,4.314,-9.187,-0.928,-0.409,8.021,46521,2021-05-14 13:48:37:608
-14.315,-4.432,-20.573,-4.521,7.438,-4.517,1.678,2.952,23.579,0.575,6.357,-0.922,47021,2021-05-14 13:48:38:108
22.941,-8.847,20.363,-4.477,6.517,-5.801,16.851,-4.829,7.528,-2.007,0.095,1.237,47521,2021-05-14 13:48:38:608
-15.263,52.318,0.668,-3.727,8.825,-2.096,-2.181,-3.236,7.692,3.403,0.073,-4.313,48022,2021-05-14 13:48:39:109
-11.868,5.839,8.787,1.074,9.733,-0.531,-7.722,-17.392,2.234,1.018,2.304,-0.859,48521,2021-05-14 13:48:39:608
3.838,8.193,20.856,-4.811,7.965,-3.095,7.313,-0.957,21.471,-3.035,-2.877,8.091,49021,2021-05-14 13:48:40:108
23.202,-21.275,-0.151,-6.522,4.341,-5.899,10.49,-4.67,-6.878,-2.648,-7.09,4.579,49521,2021-05-14 13:48:40:608
1.07,9.352,5.167,-8.816,3.928,-1.736,-1.092,10,4.668,-0.528,-1.362,1.478,50021,2021-05-14 13:48:41:108
-3.148,-5.674,-3.376,0.074,9.806,-0.106,-3.223,-15.48,-3.269,3.536,0.744,-6.195,50521,2021-05-14 13:48:41:608
0.74,18.292,3.476,-1.282,9.612,1.46,15.763,34.581,23.738,1.576,-4.214,3.252,51021,2021-05-14 13:48:42:108
-4.817,-6.622,8.071,-6.555,7.185,-1.254,1.738,-13.808,9.325,4.541,-1.958,0.402,51522,2021-05-14 13:48:42:609
42.095,-15.68,7.877,-8.368,2.89,-4.219,13.57,-8.146,-7.277,-1.742,0.979,1.157,52021,2021-05-14 13:48:43:108
-3.057,9.534,5.796,-9.47,1.923,-1.672,19.209,23.215,7.414,-1.15,5.399,-3.864,52521,2021-05-14 13:48:43:608
-3.716,-7.566,1.085,-1.75,9.594,1.028,-1.966,-17.16,0.056,0.719,3.858,-1.246,53021,2021-05-14 13:48:44:108
5.911,13.724,0.74,-3.292,9.21,0.715,16.239,26.694,27.27,0.715,2.566,7.559,53521,2021-05-14 13:48:44:608
4.202,28.955,8.94,-7.29,5.204,-3.994,9.765,20.52,-8.11,-1.274,2.205,0.572,54021,2021-05-14 13:48:45:108
55.031,-12.412,13.949,-8.506,3.067,-3.797,2.106,2.619,3.701,-0.864,-2.613,1.611,54521,2021-05-14 13:48:45:608
6.414,31.718,-24.016,-4.454,8.45,-2.219,0.347,32.284,4.378,4.286,-1.961,-7.315,55021,2021-05-14 13:48:46:108
-9.115,-8.013,1.302,-1.294,9.695,0.702,-7.82,-17.709,0.601,1.056,1.598,-1.095,55521,2021-05-14 13:48:46:608
-12.728,18.129,12.28,-7.323,4.917,-4.286,3.818,-17.12,9.725,-5.051,-5.87,6.485,56021,2021-05-14 13:48:47:108
8.224,-5.358,-15.419,-6.032,4.641,-6.184,16.636,-25.72,-7.938,-0.157,5.234,2.258,56521,2021-05-14 13:48:47:608
3.282,2.076,1.135,-8.931,1.851,-3.602,-4.428,46.107,-0.105,1.241,-4.895,-7.815,57021,2021-05-14 13:48:48:108
-1.511,-3.445,-2.622,-0.406,9.766,-0.79,1.578,-7.229,3.198,3.625,0.009,-4.853,57521,2021-05-14 13:48:48:608
-15.728,36.536,-7.539,-4.612,8.655,0.024,10.832,-7.024,17.226,1.357,3.786,5.69,58021,2021-05-14 13:48:49:108
-2.555,27.351,-8.416,-6.603,6.988,-1.934,6.167,-9.748,-0.601,1.231,-4.805,2.888,58521,2021-05-14 13:48:49:608
20.02,-7.58,10.427,-8.842,3.836,-1.811,28.112,-12.318,13.3,-0.164,0.155,-5.389,59020,2021-05-14 13:48:50:107
-1.089,5.839,0.515,-5.939,7.08,-3.281,9.503,34.522,-11.982,2.703,-4.917,-10.843,59521,2021-05-14 13:48:50:608
-7.616,8.258,6.261,0.34,9.794,-0.36,-3.831,-2.963,-20.316,-0.936,-1.335,4.365,60020,2021-05-14 13:48:51:107
8.645,28.637,29.937,-1.465,8.628,-4.425,10.846,20.898,35.544,-1.718,-8.757,-0.226,60521,2021-05-14 13:48:51:608
6.201,-26.327,15.495,-3.674,6.073,-6.767,16.846,-14.423,14.291,-2.057,0.108,4.077,61021,2021-05-14 13:48:52:108
0.536,8.59,12.22,-1.081,8.204,-5.263,27.668,30.912,7.494,1.793,-5.603,-2.234,61522,2021-05-14 13:48:52:609
-2.612,2.184,2.004,-0.123,7.809,-5.931,15.568,14.117,15.002,-2.587,4.936,-2.33,62021,2021-05-14 13:48:53:108
-16.285,14.676,3.211,-4.453,7.713,-4.105,-12.444,6.17,6.218,-3.219,-2.955,1.353,62521,2021-05-14 13:48:53:608
12.993,1.334,9.766,-7.66,4.258,-4.4,16.613,-3.958,2.971,3.301,-1.183,-0.683,63021,2021-05-14 13:48:54:108
-23.513,-8.1,-14.892,-5.984,7.302,-2.653,-0.172,4.405,-1.691,4.75,1.092,-6.435,63521,2021-05-14 13:48:54:608
-4.748,-4.3,-7.606,-4.12,8.851,-0.924,6.949,-14.107,6.618,0.212,-1.928,2.625,64021,2021-05-14 13:48:55:108
-1.336,21.316,6.177,-4.867,8.106,-2.604,-2.96,0.666,4.665,-2.18,0.577,4.284,64521,2021-05-14 13:48:55:608
1.642,-0.96,-6.371,-5.969,5.056,-5.914,7.907,-6.072,-0.821,1.707,-3.957,1.759,65021,2021-05-14 13:48:56:108
-4.635,10.297,6.144,-6.949,6.917,0.177,2.491,0.94,6.933,1.254,-0.091,-1.07,65521,2021-05-14 13:48:56:608
-1.75,-1.171,14.26,0.066,1.298,9.72,2.579,0.928,-0.168,-0.107,1.322,2.067,66021,2021-05-14 13:48:57:108
-2.342,0.958,8.77,1.147,3.607,9.047,-4.037,-1.988,-2.499,0.319,-0.712,-0.347,66521,2021-05-14 13:48:57:608
-0.093,5.631,9.713,0.335,5.516,8.101,-0.016,0.468,1.377,0.954,-0.888,-0.429,67020,2021-05-14 13:48:58:107
-0.931,5.997,8.715,-0.146,5.839,7.878,-0.756,0.124,0.864,0.294,0.085,0.307,67521,2021-05-14 13:48:58:608
0.136,5.148,8.866,0.027,5.009,8.431,0.109,0.139,0.435,-0.147,-0.527,-0.363,68021,2021-05-14 13:48:59:108
1.511,6.766,9.407,0.316,5.707,7.969,1.04,1.009,-0.14,0.659,-0.443,0.104,68521,2021-05-14 13:48:59:608
-0.34,6.199,6.076,-0.365,6.294,7.512,0.025,-0.095,-1.435,-0.039,0.128,0.125,69022,2021-05-14 13:49:00:109
5.6608,5.8926,3.8273,1.991,6.3175,7.2316,-3.7993,-2.3418,3.7231,0.5901,-0.5745,0.1999,7,2021-05-14 13:47:09:121
20.9952,3.2483,-18.9239,8.9719,-3.5582,1.7362,16.3301,0.1298,-3.5511,3.1747,3.03,4.4531,508,2021-05-14 13:47:09:622
14.397,6.2985,0.3006,8.1349,-5.0073,2.2185,3.7439,3.5412,-3.1967,-0.4708,2.6266,2.2352,1008,2021-05-14 13:47:10:122
4.2652,-1.2861,4.1982,7.9428,-5.4744,-1.7646,-7.08,7.3216,5.0729,0.4813,-1.6914,1.6969,1508,2021-05-14 13:47:10:622
-4.7198,7.797,1.2679,0.5243,-6.4341,-7.3822,6.6128,-20.6694,-0.3129,-7.8175,-0.0386,-0.6768,2008,2021-05-14 13:47:11:122
-1.4638,1.1393,-10.1255,0.4593,-9.3494,2.9237,-9.0205,6.6219,-8.9328,-4.1098,-0.832,0.1234,2508,2021-05-14 13:47:11:622
3.9802,-11.176,-23.9061,-0.6173,-9.4571,-2.5204,0.0212,2.7321,-9.3758,0.1098,2.2004,1.6107,3008,2021-05-14 13:47:12:122
-2.4957,3.7558,12.9583,0.2006,-8.5822,-4.741,-6.2079,13.9361,11.4118,0.5653,0.6819,1.0328,3508,2021-05-14 13:47:12:622
0.0924,-5.6124,-7.9902,0.5568,-9.1924,-3.3705,-2.5277,8.5545,-0.7567,-7.1446,-0.9963,-0.1962,4008,2021-05-14 13:47:13:122
8.8475,-42.5459,-20.3219,-0.6809,-9.3228,2.9652,3.9073,-10.8493,5.9433,2.4348,-2.6476,0.6137,4510,2021-05-14 13:47:13:624
-43.5664,-44.9809,3.128,-2.1158,-8.3074,-4.7624,-1.9229,12.8051,11.6124,1.4008,0.3047,1.7214,5007,2021-05-14 13:47:14:121
-0.7983,5.4054,3.9661,-2.7622,-8.1178,-4.7584,4.5662,-3.7514,8.6988,-2.3198,-5.2776,-1.1023,5508,2021-05-14 13:47:14:622
22.1683,-56.3671,-11.878,-2.8358,-9.1705,-2.0075,7.2619,4.7321,-5.7613,-6.0714,-1.6534,-2.5846,6007,2021-05-14 13:47:15:121
-3.2426,-10.544,-7.0971,-3.1292,-9.1712,1.5058,10.7899,-17.0251,-3.9535,2.9875,-2.8771,-2.5217,6507,2021-05-14 13:47:15:621
1.1192,1.6705,-1.981,-1.4557,-9.3254,-2.6623,-19.9138,-15.1439,-2.3448,3.2453,1.1945,-0.2827,7007,2021-05-14 13:47:16:121
-5.024,-2.6028,-1.2218,1.656,-9.4325,-2.111,-5.4712,2.1569,-0.1651,-0.5838,0.8115,1.4949,7508,2021-05-14 13:47:16:622
2.4649,0.3897,-1.9116,-0.4927,-9.7212,1.1944,4.8517,7.8391,-13.3933,-2.5373,2.0686,-2.0599,8008,2021-05-14 13:47:17:122
-1.7417,-9.0526,-15.5483,-1.7689,-9.6412,0.2993,-17.9467,-22.9775,0.2903,0.2843,1.2932,2.389,8507,2021-05-14 13:47:17:621
1.8377,-0.8695,-0.8438,-0.3639,-9.693,-1.4435,1.1574,14.1329,4.1062,2.0773,1.454,1.2018,9008,2021-05-14 13:47:18:122
-3.6664,-8.1069,4.069,-0.49,-9.0264,-3.8019,-13.4797,-19.5184,0.6127,-4.8063,-0.3063,0.2839,9508,2021-05-14 13:47:18:622
-0.6978,-1.7339,-1.593,-1.6391,-9.3761,2.3607,-2.1974,4.8753,-8.0907,0.7316,-0.15,-0.2059,10008,2021-05-14 13:47:19:122
0.4442,-15.993,-1.174,-1.7889,-9.6194,0.6615,1.7744,-6.7789,-3.1958,2.6868,-0.1608,-0.2222,10508,2021-05-14 13:47:19:622
2.4888,2.0632,3.0682,-2.661,-8.4096,-4.2858,1.8392,11.4392,9.671,-1.7165,0.5733,0.42,11008,2021-05-14 13:47:20:122
-6.4531,-2.9692,-5.9169,-5.227,-5.2218,-6.4483,-3.7829,-2.8524,-5.0955,-0.2885,-1.1139,0.4772,11508,2021-05-14 13:47:20:622
-7.2793,-4.5876,-5.0931,-6.8767,-4.4772,-5.3699,-0.0536,0.0257,0.7473,0.0399,-0.0602,-0.1275,12008,2021-05-14 13:47:21:122
-6.8507,-4.2954,-5.1003,-7.0695,-4.6691,-4.9388,0.196,0.4453,-0.3395,0.0257,0.0092,0.0971,12508,2021-05-14 13:47:21:622
-7.1904,-4.7767,-4.9352,-7.0805,-4.6699,-4.9223,0.2606,0.4718,0.4557,-0.0819,-0.0041,-0.0379,13008,2021-05-14 13:47:22:122
-7.188,-4.2523,-4.9519,-7.1659,-4.5619,-4.8999,-0.0252,0.1181,0.123,0.0351,0.002,0.0166,13508,2021-05-14 13:47:22:622
-7.1521,-4.7121,-4.7007,-7.218,-4.523,-4.8594,-0.0826,0.0729,0.3347,6.00E-04,0.0321,-0.0131,14008,2021-05-14 13:47:23:122
-7.0947,-4.3433,-4.7725,-7.1684,-4.5283,-4.9274,0.0389,0.0932,0.0603,0.0221,0.0463,0.0301,14508,2021-05-14 13:47:23:622
-6.9009,-4.6355,-4.8754,-7.0836,-4.5284,-5.0484,-0.044,0.0489,0.1452,0.0504,0.0518,0.1063,15008,2021-05-14 13:47:24:122
-7.1426,-4.3792,-5.2035,-7.0466,-4.5289,-5.0995,0.0414,-0.0092,-0.041,0.0144,-0.0785,-0.0622,15508,2021-05-14 13:47:24:622
-7.1809,-4.3026,-4.9352,-7.1714,-4.4332,-5.0088,-0.0712,0.148,0.1374,0.0131,-0.0289,0.006,16008,2021-05-14 13:47:25:122
-7.1354,-4.4725,-5.0333,-7.1585,-4.4051,-5.0519,-0.0975,0.0447,0.0274,0.0057,-0.0246,-0.0121,16508,2021-05-14 13:47:25:622
-7.1785,-4.2858,-5.062,-7.2001,-4.2974,-5.0854,-0.0384,-0.0057,0.0534,-0.0105,0.0209,0.0192,17008,2021-05-14 13:47:26:122
-7.0828,-4.2165,-4.9926,-7.1447,-4.2577,-5.1958,0.0091,0.0511,0.1791,0.0484,0.0069,-0.0029,17507,2021-05-14 13:47:26:621
-6.7143,-4.2954,-5.2537,-6.9527,-4.3977,-5.3377,0.1859,0.0746,-0.0192,-6.00E-04,0.0098,-0.0409,18008,2021-05-14 13:47:27:122
-7.1115,-4.4725,-5.2298,-7.0564,-4.4087,-5.1905,0.0309,-0.1043,-0.0705,0.015,-0.0441,0.0308,18508,2021-05-14 13:47:27:622
-7.0588,-4.1327,-5.4212,-7.0667,-4.4752,-5.1191,-0.0317,0.0716,-0.0059,0.0377,0.0544,0.0055,19008,2021-05-14 13:47:28:122
-6.8507,-4.4629,-5.304,-7.1257,-4.4134,-5.0909,0.0922,0.1024,-0.1984,0.0121,-0.0649,0.0183,19508,2021-05-14 13:47:28:622
-7.2506,-4.4749,-5.0931,-7.1642,-4.4411,-5.0122,0.1064,0.0075,0.0017,0.0339,0.0443,-0.0095,20008,2021-05-14 13:47:29:122
-7.3774,-4.5278,-6.2016,-7.1619,-4.3356,-5.1069,-0.0778,0.261,-0.0763,0.0144,-0.0082,-0.1381,20507,2021-05-14 13:47:29:621
-5.3901,-6.0957,-0.7193,-4.219,-7.2369,-5.0988,-0.7474,0.1655,-0.4375,0.8216,-0.7237,-0.8534,21009,2021-05-14 13:47:30:123
0.5088,-9.3446,0.3365,-3.684,-8.917,-1.7564,-0.6597,0.9625,1.178,0.0829,-0.7889,-0.4555,21508,2021-05-14 13:47:30:622
-5.7661,-19.4094,-1.3705,-4.4234,-7.6192,-4.3072,1.1704,-5.4422,-5.6794,-5.2684,-1.2023,-0.131,22008,2021-05-14 13:47:31:122
6.7454,-6.3449,-23.9635,-1.9113,-9.5879,0.7681,6.8152,3.2078,-2.4229,-0.9076,-1.3306,-0.2859,22508,2021-05-14 13:47:31:622
-8.572,-8.0662,4.069,-1.9861,-9.1013,3.0647,-3.1027,-3.8194,-0.082,5.5176,-4.6823,-0.4074,23008,2021-05-14 13:47:32:122
-15.1511,11.7808,20.2962,0.5108,-9.1573,-3.4719,-10.1798,16.1459,25.3947,-1.6433,-0.1028,0.3143,23508,2021-05-14 13:47:32:622
6.0727,-36.0628,7.3537,-0.3184,-8.6241,-4.6577,7.4529,2.7119,1.2473,-7.3793,-3.4931,-1.6058,24008,2021-05-14 13:47:33:122
3.3147,-0.0173,0.5474,-2.9023,-8.6091,3.6919,-8.7449,-18.4655,-20.0858,-2.5007,-0.5232,-0.7625,24508,2021-05-14 13:47:33:622
2.6276,-11.4012,1.4474,-1.9424,-8.7459,3.9883,12.7581,-9.6558,-3.8255,7.3047,-0.7297,-3.4479,25008,2021-05-14 13:47:34:122
1.5072,-8.782,-23.0871,-4.3084,-7.2526,5.0008,2.0463,14.7325,10.0868,1.6029,2.2607,0.8246,25508,2021-05-14 13:47:34:622
18.1893,-43.3744,4.7417,0.8675,-9.072,-3.6218,2.9598,-25.9986,-3.9602,-5.652,1.8086,-0.3166,26007,2021-05-14 13:47:35:121
2.5056,-30.8028,-9.0673,-1.5596,-9.5135,-1.7978,9.3774,8.4899,-4.2674,-4.1153,1.1018,-0.9532,26508,2021-05-14 13:47:35:622
1.6771,-0.8001,-3.5683,-4.0392,-8.8729,-1.0619,3.2183,0.6509,-13.8026,1.4769,1.8327,1.8628,27008,2021-05-14 13:47:36:122
12.5249,-21.1929,7.6146,-4.0869,-8.8259,-1.2536,-7.7438,-7.8479,4.1906,-0.0023,1.9752,2.9056,27507,2021-05-14 13:47:36:621
-8.4523,-0.5366,14.7012,-1.31,-7.4652,-6.223,-0.9557,21.4992,22.6896,1.3571,0.0994,1.247,28007,2021-05-14 13:47:37:121
4.8757,-1.5446,-5.304,-2.638,-9.3002,1.6487,6.9131,9.3705,-7.9549,-2.0841,-1.4185,-0.3007,28508,2021-05-14 13:47:37:622
-2.9387,6.3057,-18.256,-2.2202,-8.5072,4.3438,-8.947,4.3651,-16.6921,6.3239,-1.3393,-1.4176,29008,2021-05-14 13:47:38:122
6.0703,-17.9611,6.7002,-3.2159,-9.0902,-1.7876,-1.3155,-13.408,7.2434,1.3109,1.6059,1.1875,29508,2021-05-14 13:47:38:622
-3.5228,-1.4489,5.5271,-0.1305,-7.4277,-6.4017,-6.2962,20.6383,17.8927,2.7995,0.724,1.3964,30008,2021-05-14 13:47:39:122
-1.9451,-10.3908,-3.6832,-0.0808,-8.3883,-5.0794,-3.5288,-32.9448,-5.725,-6.4391,-0.8315,-1.1907,30508,2021-05-14 13:47:39:622
5.091,-1.145,-1.4183,-1.693,-8.9836,3.5495,-12.8554,7.5905,-11.4633,-0.9424,-0.5305,0.8596,31008,2021-05-14 13:47:40:122
20.1476,-38.9381,-1.2386,-3.2751,-9.1943,-0.9534,-10.0074,-16.7518,6.8417,1.7234,2.9815,1.2066,31508,2021-05-14 13:47:40:622
1.8951,0.7466,8.589,-1.9658,-8.0463,-5.25,4.8477,8.6187,12.1947,-0.1819,-0.8294,0.9639,32008,2021-05-14 13:47:41:122
6.6712,-19.7375,5.0028,-1.2225,-8.3045,-5.0706,-14.3774,-34.9373,-5.7237,-7.4609,0.5568,2.7716,32508,2021-05-14 13:47:41:622
2.5152,-1.6813,-9.9796,-2.2126,-8.7842,3.7566,-5.9281,11.1089,-12.4255,-2.1503,0.8651,0.0072,33008,2021-05-14 13:47:42:122
-0.8844,-0.6541,1.9765,-3.5824,-9.1275,-0.1572,-7.0791,-15.2667,14.0066,1.1609,3.4105,1.9711,33507,2021-05-14 13:47:42:621
-7.7674,-17.4392,2.4625,0.2451,-8.7787,-4.3641,-6.1228,16.7448,14.8407,1.775,1.3003,1.3164,34008,2021-05-14 13:47:43:122
12.0293,-61.2296,-13.8221,-0.8468,-8.7384,-4.3697,-7.6376,-43.3744,-8.1627,-6.0309,1.3729,0.7695,34508,2021-05-14 13:47:43:622
2.0219,-0.6494,-3.9464,-2.8545,-8.3829,4.213,-10.8226,7.8655,-12.1295,-2.0309,0.2233,0.0505,35007,2021-05-14 13:47:44:121
-4.8682,-24.3198,-12.1774,-3.5026,-9.046,-1.4395,0.7891,-7.0353,2.4206,1.5714,-1.1947,1.2561,35508,2021-05-14 13:47:44:622
-3.8243,-11.6955,-32.0411,-3.3982,-8.8762,-2.4158,4.0583,11.4016,13.4222,4.1144,1.3035,0.4824,36009,2021-05-14 13:47:45:123
-11.7754,-29.2828,-11.9309,-2.6932,-8.2961,-4.4825,-3.1843,-33.6266,-2.652,-4.6134,-1.5954,-0.2402,36508,2021-05-14 13:47:45:622
4.0666,0.0428,-10.1877,-2.1776,-8.8126,3.7105,-7.5509,3.6596,-12.8097,1.5056,-0.9351,0.3215,37008,2021-05-14 13:47:46:122
0.9733,-9.3302,-3.8267,-2.0755,-8.6825,4.0592,11.4202,-23.182,-10.399,4.0611,-2.1836,1.0552,37507,2021-05-14 13:47:46:621
4.7991,0.8853,22.2903,-2.1589,-9.1556,-2.7722,3.8325,9.2525,8.0161,2.8087,3.2427,0.4525,38008,2021-05-14 13:47:47:122
5.2086,-59.3644,-8.3731,-1.1663,-8.3564,-4.998,-7.7422,-42.6986,-6.165,-6.6756,-3.9765,-0.4629,38509,2021-05-14 13:47:47:623
-2.1126,-2.7559,-13.7145,-2.8275,-9.1981,-1.8897,-1.4182,-0.4937,-15.1128,2.5028,3.2297,1.4053,39008,2021-05-14 13:47:48:122
4.6603,-19.9241,-18.3637,-1.313,-8.1588,5.2802,0,0,0,1.3909,-0.2611,1.2513,39441,2021-05-14 13:47:48:555
-18.0335,-5.9067,-9.9987,4.1137,-8.7972,-1.3629,0,0,0,4.4251,-0.4951,-1.4889,39531,2021-05-14 13:47:48:645
3.9012,-12.9981,-11.7272,-1.7812,-8.3171,4.881,0,0,0,0.6489,0.8245,4.432,40032,2021-05-14 13:47:49:146
-6.6709,-14.1305,-17.7245,-5.3955,3.3852,7.4565,0,0,0,2.8965,0.0327,0.8392,40531,2021-05-14 13:47:49:645
9.2641,-22.6702,20.0857,-4.7523,-8.4967,1.1799,1.5172,-2.1942,-14.2553,0.5889,5.3813,5.7559,41083,2021-05-14 13:47:50:197
-30.9066,-51.6389,-1.4877,1.6791,-9.4517,2.0043,-9.5179,17.6511,8.5679,-1.1065,0.7707,4.095,41531,2021-05-14 13:47:50:645
-7.873,4.2873,17.4664,2.1375,-8.7345,-3.9127,8.6625,-2.8131,11.7754,0.3584,0.4899,0.4369,42031,2021-05-14 13:47:51:145
7.4901,-13.1943,4.9717,0.2098,-9.7311,1.197,4.0346,10.4242,-6.112,-2.1969,-0.0209,-0.3534,42531,2021-05-14 13:47:51:645
-16.1109,-10.7046,-8.3109,-0.1686,-9.0809,3.6987,15.5919,-18.542,-1.7053,3.1651,2.5312,-2.242,43031,2021-05-14 13:47:52:145
-8.9575,-19.352,4.4139,-1.8423,-9.6317,0.0789,6.2283,-20.7376,11.9744,2.4544,3.1523,3.764,43531,2021-05-14 13:47:52:645
-6.7669,7.5793,11.2155,0.3307,-8.8365,-4.24,-0.8401,9.8268,9.1871,2.7705,3.6994,0.441,44030,2021-05-14 13:47:53:144
18.376,-20.7236,1.7204,0.371,-9.738,-1.0971,4.9625,6.1937,0.4131,-4.7987,-4.665,-1.8591,44530,2021-05-14 13:47:53:644
4.5718,1.4145,-1.282,-0.3819,-9.5251,2.3015,2.9912,10.5078,-5.8014,1.3178,0.3092,0.2598,45031,2021-05-14 13:47:54:145
4.4471,-12.2246,-10.2093,-3.1055,5.0872,7.7876,0,0,0,0.3974,-0.649,1.432,45531,2021-05-14 13:47:54:645
1.5861,-4.4967,-17.6408,3.6618,-7.4608,-5.2056,-0.2127,6.2247,10.0744,1.3752,2.9686,2.1684,46031,2021-05-14 13:47:55:145
10.121,-19.2993,13.2287,2.5643,-7.7463,-5.4396,5.0205,-34.7632,-8.9174,-2.8553,0.3951,-1.6436,46531,2021-05-14 13:47:55:645
2.6228,2.2044,-10.6427,1.1485,-9.4191,2.4761,-7.255,4.2855,-13.1156,3.6251,2.0427,-1.9947,47031,2021-05-14 13:47:56:145
21.2943,-36.982,30.0281,9.5476,-0.7137,-2.1224,0,0,0,-1.9952,-2.1198,-0.7278,47724,2021-05-14 13:47:56:838
21.2943,-36.982,30.0281,9.5476,-0.7137,-2.1224,0,0,0,-1.9952,-2.1198,-0.7278,47725,2021-05-14 13:47:56:839
12.2184,-27.8629,12.2785,-0.1883,-9.2938,3.1243,0,0,0,0.5806,4.4758,-0.9528,48224,2021-05-14 13:47:57:338
12.2184,-27.8629,12.2785,-0.1883,-9.2938,3.1243,0,0,0,0.5806,4.4758,-0.9528,48225,2021-05-14 13:47:57:339
27.1217,-26.4673,-9.6538,5.7566,-4.8392,-6.2939,0,0,0,0.5806,4.4758,-0.9528,48676,2021-05-14 13:47:57:790
6.5348,-0.4409,-3.5372,2.9971,-7.9849,-4.8403,-5.1071,5.4895,-3.3421,-2.1789,-0.7284,-1.1061,49077,2021-05-14 13:47:58:191
-4.3439,-10.9319,-15.0574,2.9478,-9.195,1.7124,5.1144,-1.2143,-10.5046,-0.9068,-0.0257,-0.2399,49826,2021-05-14 13:47:58:940
-2.4694,-15.3945,3.1352,-4.0493,6.4261,6.2031,3.1061,-2.3376,-5.1153,0.9813,2.8838,0.9051,50076,2021-05-14 13:47:59:190
-8.4739,1.9316,-5.074,5.9785,-7.3795,-2.4435,-15.3219,9.5911,9.3552,0.4841,-0.2356,0.2469,50576,2021-05-14 13:47:59:690
34.3759,-46.1875,-23.6402,7.5702,-3.7237,-4.9997,-3.3686,2.6419,5.4741,-5.9104,-2.6477,-1.8628,51079,2021-05-14 13:48:00:193
-18.8354,-9.0431,-25.8691,2.2491,-9.1044,2.8675,6.5614,2.1402,-7.917,-1.0804,-0.1811,-0.2816,51577,2021-05-14 13:48:00:691
13.5257,-23.7667,7.5069,2.8743,-9.1552,-2.0228,-3.3951,4.6557,-2.8716,-0.8126,2.2249,3.2796,52077,2021-05-14 13:48:01:191
-11.9046,1.2565,15.6039,3.4865,-9.1381,-0.7141,-4.616,22.9829,5.8509,1.8287,2.8046,2.3722,52577,2021-05-14 13:48:01:691
17.0378,-20.5872,14.3037,4.2717,-7.9695,-3.796,15.5871,-41.368,-12.6527,-0.9557,-1.8128,-4.1038,53077,2021-05-14 13:48:02:191
2.7999,3.0544,-1.7007,1.0708,-9.4398,2.4319,-4.0007,4.7743,-8.9105,1.1597,0.8622,0.365,53577,2021-05-14 13:48:02:691
13.8631,-31.0065,18.9123,-0.1955,-9.7982,0.3569,-5.4475,-9.9935,10.715,3.5347,-1.7119,3.1394,54077,2021-05-14 13:48:03:191
-5.1269,-10.331,6.7528,3.5161,-8.7781,-2.5985,-14.2502,15.7154,11.1203,-0.4071,0.4589,2.2029,54577,2021-05-14 13:48:03:691
29.2861,-18.6506,14.3228,3.8141,-8.0794,-4.0432,6.6992,5.0758,15.9596,-7.035,-1.8246,-4.0463,55077,2021-05-14 13:48:04:191
8.6704,-3.9556,1.6917,2.2542,-9.5162,-0.7285,2.2895,8.5992,-5.6985,-3.3322,-2.5248,-0.3273,55845,2021-05-14 13:48:04:959
8.6704,-3.9556,1.6917,2.2542,-9.5162,-0.7285,2.2895,8.5992,-5.6985,-3.3322,-2.5248,-0.3273,55846,2021-05-14 13:48:04:960
8.6704,-3.9556,1.6917,2.2542,-9.5162,-0.7285,2.2895,8.5992,-5.6985,-3.3322,-2.5248,-0.3273,55846,2021-05-14 13:48:04:960
8.6704,-3.9556,1.6917,2.2542,-9.5162,-0.7285,2.2895,8.5992,-5.6985,-3.3322,-2.5248,-0.3273,55846,2021-05-14 13:48:04:960
8.6704,-3.9556,1.6917,2.2542,-9.5162,-0.7285,2.2895,8.5992,-5.6985,-3.3322,-2.5248,-0.3273,55847,2021-05-14 13:48:04:961
8.6704,-3.9556,1.6917,2.2542,-9.5162,-0.7285,2.2895,8.5992,-5.6985,-3.3322,-2.5248,-0.3273,55847,2021-05-14 13:48:04:961
23.2792,-23.173,15.3236,8.4395,-4.9042,-0.9452,0,0,0,2.4339,2.3118,0.5601,56255,2021-05-14 13:48:05:369
23.2792,-23.173,15.3236,8.4395,-4.9042,-0.9452,0,0,0,2.4339,2.3118,0.5601,56256,2021-05-14 13:48:05:370
35.6255,-25.1264,-33.8824,1.8907,-8.6041,4.3088,6.8273,0.5331,0.9773,4.6009,2.6442,0.3034,56487,2021-05-14 13:48:05:601
-12.9963,6.0278,4.9092,3.6337,-8.4287,-3.453,-27.0776,14.6458,19.2375,1.691,0.337,2.0108,56987,2021-05-14 13:48:06:101
-26.3387,17.2083,10.3869,6.0896,-7.675,0.4256,0,0,0,-3.1054,-2.1542,-1.4298,57487,2021-05-14 13:48:06:601
9.3646,-3.8333,-0.0535,0.1953,-9.7951,0.4342,4.7674,13.3237,-16.7724,-6.7627,-3.0484,-2.3713,57987,2021-05-14 13:48:07:101
6.0631,3.5979,-8.9285,-1.0716,-9.5841,1.7795,-5.5432,-3.7396,-10.8823,6.9472,-4.3173,-0.0417,58487,2021-05-14 13:48:07:601
13.8009,-38.5932,26.042,-1.5973,-9.6452,-0.768,0.1259,-23.2334,19.3062,-0.2359,1.2645,3.4009,58986,2021-05-14 13:48:08:100
-7.5209,-1.468,-13.4318,2.8202,-8.5964,-3.784,-16.3163,16.2208,14.4325,2.9903,1.8819,1.517,59487,2021-05-14 13:48:08:601
8.8905,-1.3747,5.1488,1.3062,-9.3618,-2.6115,1.7194,12.2801,0.9454,-2.2737,-1.4781,-3.6168,59988,2021-05-14 13:48:09:102
6.1038,0.3969,-5.5648,1.4489,-9.5297,1.8042,27.0975,-10.3165,-13.0926,0.1009,3.4682,0.2057,60487,2021-05-14 13:48:09:601
30.44,-25.4641,-27.3942,1.5494,-9.681,-0.2171,9.0808,-24.0491,24.7704,4.425,-4.2078,4.069,60987,2021-05-14 13:48:10:101
-26.3073,10.6436,3.1328,4.6111,-7.6211,-4.102,-14.9621,14.4405,21.5271,0.425,3.4954,1.8295,61487,2021-05-14 13:48:10:601
17.2938,-55.9218,1.2248,4.5075,-6.461,-5.8403,16.5378,-8.0807,3.9003,-5.5219,-4.3288,-4.049,61989,2021-05-14 13:48:11:103
3.6141,0.0906,-3.032,2.5365,-8.9391,-3.1351,3.3254,8.6945,-2.204,-1.1418,-1.2834,1.1502,62486,2021-05-14 13:48:11:600
21.7086,-15.6506,-30.0757,2.1952,-9.5071,0.9828,18.157,-6.3192,6.3851,5.8426,-0.2847,-1.8825,62986,2021-05-14 13:48:12:100
4.4447,-2.7727,-13.3146,0.5262,-9.6226,1.8165,-13.8508,15.177,4.8878,1.7218,2.0256,1.8687,63512,2021-05-14 13:48:12:626
-14.3058,8.5825,8.0839,6.7728,-4.0617,-5.814,7.1814,-15.4199,-1.5397,-6.218,-0.0579,-1.6807,63987,2021-05-14 13:48:13:101
7.2745,0.306,-0.597,-3.5686,-7.2822,-5.5141,0,0,0,1.6337,0.5974,1.8064,64487,2021-05-14 13:48:13:601
-2.3809,-13.9244,-19.7545,2.4559,-7.496,5.8266,17.8626,-6.7636,-9.9304,4.861,2.8569,-2.749,64987,2021-05-14 13:48:14:101
-1.9881,-7.8963,-19.52,4.9589,-8.4281,-0.7397,-17.6686,7.9192,3.6883,-2.9348,7.7141,6.4834,65488,2021-05-14 13:48:14:602
-4.2673,0.2964,18.3353,3.7413,-8.6018,-2.8605,-9.3594,12.4253,15.4851,-3.6463,-1.2075,-2.7253,65990,2021-05-14 13:48:15:104
24.1289,-16.6083,13.1474,5.4316,-7.3613,-3.5327,-0.3296,8.7706,-3.236,-3.8328,-4.7677,-3.0429,66488,2021-05-14 13:48:15:602
-7.1521,-6.7448,-6.7714,1.9963,-9.2916,2.4191,-0.687,9.7997,-5.5179,1.3955,-0.5044,1.3965,66987,2021-05-14 13:48:16:101
33.8348,-15.7801,-7.5497,1.2062,-9.6803,1.0037,-0.4949,-18.7299,20.3635,4.6246,-0.2428,-0.976,67487,2021-05-14 13:48:16:601
-11.7272,-58.6271,35.6543,3.8811,-8.8952,-1.4083,-17.1306,12.2061,17.4114,2.7893,-0.1834,0.9283,67987,2021-05-14 13:48:17:101
-10.5087,9.6694,7.3442,3.4847,-8.266,-3.9624,7.1065,3.1227,3.0979,0.4615,-4.4128,-3.2218,68487,2021-05-14 13:48:17:601
2.12,2.2813,-2.4335,2.5994,-9.45,-0.3332,6.5817,9.9778,-2.8481,0.161,-0.4169,1.8658,68987,2021-05-14 13:48:18:101
-4.7174,-16.7351,-11.4808,8.1767,-5.3604,-0.7603,0,0,0,4.6899,0.2905,-1.4272,69486,2021-05-14 13:48:18:600
18.1223,-61.1264,15.915,-0.1284,-9.8028,0.2443,5.1591,-0.7554,-17.3791,-2.6349,1.5572,3.0339,69987,2021-05-14 13:48:19:101
-8.7108,8.3237,6.6811,4.5817,-7.1366,-4.9242,5.7114,-4.8016,9.7234,0.7666,-0.6423,0.4636,70486,2021-05-14 13:48:19:600
-9.489,4.5078,-1.1357,2.5228,-9.4132,-1.0947,-1.6492,-3.5251,-5.0804,-5.3298,-0.1063,0.7994,70987,2021-05-14 13:48:20:101
4.7919,-0.8527,-0.6473,4.3383,-8.533,2.1301,-4.7758,5.4582,0.1761,3.4322,-1.6333,0.3709,71487,2021-05-14 13:48:20:601
18.5315,0.2581,23.0519,9.7993,0.2034,0.3218,-3.3059,10.4725,-0.4496,1.4349,3.1872,-3.5141,71986,2021-05-14 13:48:21:100
15.8719,18.0488,3.9589,7.9895,-1.9042,-5.3584,9.9702,19.343,6.2285,-1.622,1.1878,0.0425,72487,2021-05-14 13:48:21:601
6.5348,2.6043,3.638,6.1415,-7.1846,-2.6141,35.421,-3.5886,-4.1045,-4.2662,3.445,0.0458,72986,2021-05-14 13:48:22:100
10.8658,-15.4807,-3.1756,6.7867,-6.807,-1.9432,9.9201,-6.9029,4.0543,-3.1347,4.0189,3.356,73487,2021-05-14 13:48:22:601
-1.5906,-5.0713,5.2086,8.4643,-0.4437,-4.9325,-8.8438,-7.5434,9.7078,1.5887,-0.9662,-3.695,73987,2021-05-14 13:48:23:101
19.0487,4.0516,14.1518,2.471,0.4163,9.4811,10.0198,-4.5599,11.4777,-5.4101,3.2329,-1.5245,74487,2021-05-14 13:48:23:601
-6.8112,0.4208,9.9583,-0.4383,-2.534,9.4635,-1.025,3.2724,0.6792,1.1997,-0.9754,-1.74,74987,2021-05-14 13:48:24:101
-3.087,10.7587,11.1269,0.2703,4.607,8.6529,1.8877,-0.162,-7.5376,1.3217,-0.9754,-1.032,75488,2021-05-14 13:48:24:602
-1.6448,3.7032,8.9925,0.0271,5.4561,8.1486,0.44,-1.7109,0.8749,-0.7055,0.4626,-0.2547,75986,2021-05-14 13:48:25:100
1.8054,4.5951,9.8435,1.0019,5.8535,7.8041,-3.0191,-3.3263,0.5851,1.0526,-0.1691,0.9427,76487,2021-05-14 13:48:25:601
-4.3451,3.2411,10.0603,-0.2544,5.7307,7.9539,4.4787,-0.3724,7.4489,0.3554,-0.9201,-1.7165,76987,2021-05-14 13:48:26:101
