ACCELEROMETER X (m/s²),ACCELEROMETER Y (m/s²),ACCELEROMETER Z (m/s²),GRAVITY X (m/s²),GRAVITY Y (m/s²),GRAVITY Z (m/s²),LINEAR ACCELERATION X (m/s²),LINEAR ACCELERATION Y (m/s²),LINEAR ACCELERATION Z (m/s²),GYROSCOPE X (rad/s),GYROSCOPE Y (rad/s),GYROSCOPE Z (rad/s),Time since start in ms ,YYYY-MO-DD HH-MI-SS_SSS
0.9978,-0.093,9.9769,-0.0637,-0.059,9.8063,0.0414,0.0369,-0.0493,-0.0142,0.1188,0.1613,25,2021-05-19 13:01:16:642
1.9723,-0.259,9.7373,2.1247,-0.2193,9.5712,-1.1142,1.3098,0.8249,0.1834,-1.3967,0.148,525,2021-05-19 13:01:17:142
3.6293,0.1795,10.2416,1.7327,0.8029,9.6189,-4.6272,-2.9686,0.1415,1.5931,0.2912,2.9878,1025,2021-05-19 13:01:17:642
-1.8751,3.1184,7.0481,1.7185,-1.8285,9.4802,-5.1866,5.4438,-0.4876,-1.7052,-1.233,0.2165,1525,2021-05-19 13:01:18:142
2.9925,3.5761,4.8218,4.3714,0.9051,8.7317,3.1835,4.2292,-2.044,-0.2338,-1.9856,0.1958,2025,2021-05-19 13:01:18:642
9.4259,5.5528,-0.9514,6.2817,0.934,7.4725,-1.8971,2.6738,-0.0322,1.2118,-1.6071,0.5539,2525,2021-05-19 13:01:19:142
6.9873,2.1132,0.6359,9.3625,2.8917,-0.3894,-0.6217,0.6262,-6.7501,1.514,-2.7369,0.188,3025,2021-05-19 13:01:19:642
0.2883,1.6977,-14.8292,3.2518,0.779,-9.219,-0.2558,-3.8203,0.2825,0.6313,1.1521,-0.288,3525,2021-05-19 13:01:20:142
0.4741,-0.3775,-9.2192,0.2425,2.4427,-9.4945,-1.0234,-2.3589,-1.0784,0.221,-0.2399,1.6488,4026,2021-05-19 13:01:20:643
-0.609,-0.6425,-9.8536,0.2997,2.0074,-9.5943,-0.8626,-2.5866,-0.7706,0.0254,-0.0107,0.0612,4525,2021-05-19 13:01:21:142
-0.6353,-0.6293,-9.7442,-0.1021,0.9538,-9.7596,-0.5257,-1.5606,-0.4543,0.0038,-0.0646,0.0159,5025,2021-05-19 13:01:21:642
-0.6284,-0.5644,-9.8079,-0.4152,0.0655,-9.7976,-0.2069,-0.6332,-0.1663,-0.0067,-0.0023,-0.0516,5525,2021-05-19 13:01:22:142
-0.8366,-0.6347,-9.877,-0.6203,-0.391,-9.7792,-0.0707,-0.2993,-0.248,-0.0231,0.0875,0.044,6025,2021-05-19 13:01:22:642
-3.8118,-1.5957,-10.1853,-0.8706,-0.3484,-9.7617,-1.7323,-0.5458,-0.2653,-0.1509,0.139,1.7024,6525,2021-05-19 13:01:23:142
6.9311,2.9782,-6.6969,6.8114,1.0474,-6.977,-1.0071,-3.611,4.0573,-0.877,-1.3735,-1.1377,7025,2021-05-19 13:01:23:642
9.3374,-0.052,-2.994,8.9766,0.0436,-3.9482,0.4004,0.0718,-0.6189,0.0281,0.1683,0.0893,7526,2021-05-19 13:01:24:143
10.4868,-0.1932,-0.9108,9.7893,0.2197,-0.5405,-0.1946,0.5891,-0.3149,0.0229,0.9224,0.3369,8025,2021-05-19 13:01:24:642
9.5282,0.4923,-2.1362,9.4015,0.4189,-2.7581,0.347,0.0599,-0.4416,-0.0368,0.0797,-0.0861,8525,2021-05-19 13:01:25:142
9.5477,0.2498,-1.1264,9.5571,0.2632,-2.1822,0.3781,-0.4672,-0.4623,-0.0086,0.2891,-0.3279,9026,2021-05-19 13:01:25:643
8.8678,-0.0607,-4.3896,8.7007,-0.0218,-4.5241,0.643,0.2183,1.1543,-0.0365,-0.9192,0.1942,9527,2021-05-19 13:01:26:144
9.1337,-0.1932,-4.3158,8.6815,-0.0577,-4.5605,0.0472,0.1856,0.0514,0.0458,0.0182,0.1041,10026,2021-05-19 13:01:26:643
8.86,-0.0024,-4.2984,8.7552,-0.0674,-4.4174,0.0818,-0.0441,-0.0443,-0.0266,0.0512,-0.0102,10526,2021-05-19 13:01:27:143
8.8334,-0.0667,-4.3896,8.7709,-0.1001,-4.3854,-0.0109,0.0229,-0.064,-0.0118,0.0243,0.004,11026,2021-05-19 13:01:27:643
8.8795,-0.0948,-4.3397,8.7948,-0.0986,-4.3373,0.0245,-0.0089,0.0285,-3.00E-04,0.0058,-0.0038,11525,2021-05-19 13:01:28:142
8.9067,-0.1394,-4.3098,8.8154,-0.1234,-4.2947,0.0443,-0.0642,7.00E-04,-0.0011,0.0116,-0.0147,12025,2021-05-19 13:01:28:642
8.9142,-0.1442,-4.3014,8.8282,-0.1254,-4.2681,0.0136,-0.0082,0.027,2.00E-04,-0.0099,0.0035,12526,2021-05-19 13:01:29:143
8.8926,-0.1208,-4.3128,8.8265,-0.1286,-4.2717,0.013,-0.0213,0.0083,0,-0.002,-0.0052,13026,2021-05-19 13:01:29:643
8.9076,-0.1358,-4.3011,8.8211,-0.1276,-4.2829,0.0054,-0.0144,-0.0013,0,-0.002,-0.0031,13525,2021-05-19 13:01:30:142
8.881,-0.1152,-4.3259,8.8161,-0.1279,-4.293,-0.0095,0.0175,0.0081,2.00E-04,-0.0023,2.00E-04,14026,2021-05-19 13:01:30:643
8.8543,0.0018,-4.2843,8.8257,-0.0926,-4.2741,-0.0624,0.0745,-0.0369,-0.0125,0.0209,-0.0179,14526,2021-05-19 13:01:31:143
8.9013,-0.1277,-4.3247,8.8206,-0.1099,-4.2843,-0.0221,0.0306,-0.0166,-0.0021,0.0043,0.0107,15026,2021-05-19 13:01:31:643
8.9088,-0.1214,-4.2832,8.8286,-0.1175,-4.2676,-0.0152,0.0302,-0.0018,0.0014,-0.0027,0.0037,15525,2021-05-19 13:01:32:142
8.9028,-0.1385,-4.3295,8.8302,-0.1262,-4.264,-0.0064,-0.0072,-0.023,5.00E-04,-0.0017,0.004,16026,2021-05-19 13:01:32:643
8.884,-0.1083,-4.3155,8.8289,-0.1236,-4.2667,-0.0267,0.0101,-0.041,0.0041,0.0046,-0.0053,16526,2021-05-19 13:01:33:143
8.8866,-0.1113,-4.3178,8.831,-0.1239,-4.2624,0.0111,-0.004,-3.00E-04,3.00E-04,0.0018,-0.0023,17026,2021-05-19 13:01:33:643
8.9103,-0.1364,-4.2852,8.8327,-0.1221,-4.259,-0.0021,-0.0106,0.0049,-0.0014,0.0087,-0.0014,17526,2021-05-19 13:01:34:143
8.9163,-0.1439,-4.2933,8.8311,-0.1256,-4.2621,0.0142,-0.0174,0.0046,-8.00E-04,6.00E-04,0.0029,18028,2021-05-19 13:01:34:645
8.9237,-0.1537,-4.2858,8.8324,-0.1252,-4.2595,-0.0175,0.0132,-0.0139,2.00E-04,0.0043,0.0049,18525,2021-05-19 13:01:35:142
8.9061,-0.1241,-4.2888,8.8344,-0.1248,-4.2554,-0.0018,9.00E-04,7.00E-04,2.00E-04,0.0023,-2.00E-04,19026,2021-05-19 13:01:35:643
8.9061,-0.1265,-4.2781,8.8348,-0.1261,-4.2545,-0.0162,0.0062,-0.0111,-2.00E-04,0.0064,6.00E-04,19526,2021-05-19 13:01:36:143
8.9034,-0.1247,-4.2852,8.8362,-0.1276,-4.2516,2.00E-04,0.0012,0.003,-3.00E-04,0.0017,5.00E-04,20026,2021-05-19 13:01:36:643
8.9136,-0.1289,-4.2817,8.8366,-0.1267,-4.2506,-0.0013,-0.0044,-0.0103,-3.00E-04,0.0021,-0.0012,20526,2021-05-19 13:01:37:143
8.9046,-0.1223,-4.2897,8.8376,-0.1256,-4.2487,-0.001,-0.0077,0.0104,-6.00E-04,-0.0026,-0.004,21026,2021-05-19 13:01:37:643
8.8872,-0.0981,-4.2981,8.8346,-0.1231,-4.2549,0.0016,-0.0057,0.0136,0.0026,-0.0057,-0.0089,21526,2021-05-19 13:01:38:143
8.8923,-0.0852,-4.2721,8.8399,-0.1213,-4.244,-0.0324,0.0411,-0.0038,-0.0049,0.002,-0.0096,22025,2021-05-19 13:01:38:642
8.9019,-0.1181,-4.2778,8.8373,-0.12,-4.2495,0.0257,-0.0114,0.0158,-0.0034,-0.0087,0.0027,22525,2021-05-19 13:01:39:142
8.8481,-0.0694,-4.3403,8.8438,-0.1255,-4.2359,0.0327,0.0867,0.2762,0.0177,-0.1046,0.0134,23031,2021-05-19 13:01:39:648
8.884,-0.1747,-4.3271,8.8209,-0.1652,-4.282,1.00E-04,-0.0058,-0.0111,0.0046,-0.0163,0.011,23525,2021-05-19 13:01:40:142
8.9019,-0.2076,-4.3125,8.8205,-0.1748,-4.2823,0.0034,-0.0192,-0.0223,8.00E-04,-0.0031,0.0098,24026,2021-05-19 13:01:40:643
8.8834,-0.1759,-4.3385,8.8209,-0.1815,-4.2812,-0.0166,0.001,-0.0073,3.00E-04,0.0064,-0.0021,24526,2021-05-19 13:01:41:143
8.9261,-0.1741,-4.2568,8.8485,-0.1642,-4.2247,-0.0406,0.0604,-0.0051,0.0029,-0.0055,0.0124,25031,2021-05-19 13:01:41:648
8.9201,-0.2168,-4.3056,8.8432,-0.1781,-4.2351,0.0163,-0.0101,0.0238,-0.0021,8.00E-04,-0.0057,25526,2021-05-19 13:01:42:143
8.9163,-0.1831,-4.2616,8.8423,-0.1794,-4.237,0.0093,-0.0104,-0.0086,0.0021,-9.00E-04,0.0012,26027,2021-05-19 13:01:42:644
8.9082,-0.1992,-4.305,8.8482,-0.1822,-4.2246,-0.0024,-0.0044,-0.009,-0.0037,0.0108,3.00E-04,26526,2021-05-19 13:01:43:143
8.8944,-0.1501,-4.2721,8.8461,-0.1732,-4.2293,-0.0342,0.0447,-0.0068,2.00E-04,-0.0096,-0.0014,27027,2021-05-19 13:01:43:644
8.9121,-0.1977,-4.2796,8.8455,-0.1822,-4.2303,-0.0199,0.0044,-0.016,8.00E-04,0.0115,0.0034,27525,2021-05-19 13:01:44:142
8.9139,-0.1932,-4.2613,8.8439,-0.1864,-4.2334,0.0047,-0.0041,0.0156,-0.0021,-6.00E-04,0,28025,2021-05-19 13:01:44:642
8.9216,-0.2028,-4.2667,8.8421,-0.1824,-4.2372,-0.0248,0.0237,-0.0292,-2.00E-04,0.0032,0.0061,28525,2021-05-19 13:01:45:142
8.9031,-0.2055,-4.2996,8.8415,-0.1884,-4.2384,-0.0062,-0.0204,-0.0398,0.0044,0.0031,3.00E-04,29026,2021-05-19 13:01:45:643
8.9136,-0.1938,-4.2685,8.8425,-0.1865,-4.2362,2.00E-04,-9.00E-04,0.0054,-6.00E-04,-6.00E-04,-0.0014,29526,2021-05-19 13:01:46:143
8.9115,-0.1869,-4.2685,8.8426,-0.1837,-4.2361,-0.0068,0.0138,-0.002,-3.00E-04,8.00E-04,6.00E-04,30025,2021-05-19 13:01:46:642
8.9124,-0.1795,-4.2727,8.8435,-0.1852,-4.2342,0.003,0.0066,-0.0129,0,0.0012,0.0012,30525,2021-05-19 13:01:47:142
8.9082,-0.178,-4.2715,8.8439,-0.1835,-4.2334,-0.0047,0.0081,-0.0069,-5.00E-04,-0.0034,3.00E-04,31026,2021-05-19 13:01:47:643
8.9181,-0.192,-4.2535,8.8432,-0.1849,-4.2349,0.0156,-0.0184,9.00E-04,0,0.0032,-0.0018,31526,2021-05-19 13:01:48:143
8.8834,-0.1953,-4.3675,8.8272,-0.1802,-4.2683,-0.0668,0.0709,-0.0949,0.0066,0.0235,0.0173,32026,2021-05-19 13:01:48:643
8.9121,-0.1926,-4.2748,8.8377,-0.1891,-4.2462,-5.00E-04,0.001,0.0123,-0.0011,0.0031,-0.0038,32526,2021-05-19 13:01:49:143
8.8947,-0.1857,-4.287,8.8399,-0.1854,-4.2416,-0.0116,0.0028,-0.0102,3.00E-04,-0.002,0.0011,33032,2021-05-19 13:01:49:649
8.8959,-0.1905,-4.2927,8.8386,-0.1874,-4.2443,0.0055,-0.0039,0.0052,2.00E-04,-0.0058,-0.0011,33525,2021-05-19 13:01:50:142
8.91,-0.1831,-4.2673,8.8423,-0.1832,-4.2368,-0.0082,0.0078,-8.00E-04,2.00E-04,0.0015,6.00E-04,34026,2021-05-19 13:01:50:643
8.9013,-0.1845,-4.2685,8.8421,-0.1869,-4.237,-0.0023,0.0099,-0.0019,5.00E-04,9.00E-04,-9.00E-04,34526,2021-05-19 13:01:51:143
8.9031,-0.1842,-4.2709,8.8417,-0.187,-4.2378,0.0039,-0.0093,0.0048,-2.00E-04,0.0014,6.00E-04,35026,2021-05-19 13:01:51:643
8.9076,-0.1881,-4.264,8.8441,-0.1876,-4.2328,-7.00E-04,-0.0046,0.0097,-2.00E-04,-0.0031,-0.0027,35526,2021-05-19 13:01:52:143
8.9067,-0.1854,-4.2682,8.8441,-0.1867,-4.2329,8.00E-04,0.0014,0.0021,-6.00E-04,3.00E-04,-9.00E-04,36026,2021-05-19 13:01:52:643
8.9118,-0.192,-4.2685,8.8434,-0.1879,-4.2343,-3.00E-04,6.00E-04,-0.0094,3.00E-04,-0.0024,-2.00E-04,36526,2021-05-19 13:01:53:143
8.8992,-0.1792,-4.2796,8.8444,-0.1865,-4.2323,-0.0046,0.008,0.0057,5.00E-04,-0.0034,-8.00E-04,37026,2021-05-19 13:01:53:643
8.9127,-0.1857,-4.2634,8.8433,-0.1875,-4.2346,-0.0014,1.00E-04,-0.0053,-6.00E-04,0.0015,6.00E-04,37526,2021-05-19 13:01:54:143
8.9139,-0.1962,-4.2634,8.8439,-0.1898,-4.2333,0.0013,-0.0047,0.0044,2.00E-04,-0.0012,-0.0011,38025,2021-05-19 13:01:54:642
8.9118,-0.1929,-4.2754,8.8445,-0.1927,-4.2317,0.0041,-0.0129,0.0103,-0.0011,-0.0026,-0.0035,38526,2021-05-19 13:01:55:143
8.9028,-0.1851,-4.273,8.8442,-0.19,-4.2326,-0.0028,0.0099,0.008,9.00E-04,-0.0027,0.0017,39026,2021-05-19 13:01:55:643
8.927,-0.2079,-4.2511,8.8479,-0.188,-4.2249,-0.0015,0.0031,0.0093,0.0011,-0.0011,-0.0043,39525,2021-05-19 13:01:56:142
8.916,-0.1878,-4.2646,8.847,-0.1873,-4.2268,-0.0029,-0.0016,-0.0012,2.00E-04,-2.00E-04,3.00E-04,40026,2021-05-19 13:01:56:643
8.916,-0.1878,-4.2646,8.847,-0.1873,-4.2268,-0.0029,-0.0016,-0.0012,2.00E-04,-2.00E-04,3.00E-04,40026,2021-05-19 13:01:56:643
8.916,-0.1878,-4.2646,8.847,-0.1873,-4.2268,-0.0029,-0.0016,-0.0012,2.00E-04,-2.00E-04,3.00E-04,40027,2021-05-19 13:01:56:644
8.916,-0.1878,-4.2646,8.847,-0.1873,-4.2268,-0.0029,-0.0016,-0.0012,2.00E-04,-2.00E-04,3.00E-04,40027,2021-05-19 13:01:56:644
8.916,-0.1878,-4.2646,8.847,-0.1873,-4.2268,-0.0029,-0.0016,-0.0012,2.00E-04,-2.00E-04,3.00E-04,40027,2021-05-19 13:01:56:644
8.916,-0.1878,-4.2646,8.847,-0.1873,-4.2268,-0.0029,-0.0016,-0.0012,2.00E-04,-2.00E-04,3.00E-04,40027,2021-05-19 13:01:56:644
8.916,-0.1878,-4.2646,8.847,-0.1873,-4.2268,-0.0029,-0.0016,-0.0012,2.00E-04,-2.00E-04,3.00E-04,40029,2021-05-19 13:01:56:646
8.916,-0.1878,-4.2646,8.847,-0.1873,-4.2268,-0.0029,-0.0016,-0.0012,2.00E-04,-2.00E-04,3.00E-04,40030,2021-05-19 13:01:56:647
8.916,-0.1878,-4.2646,8.847,-0.1873,-4.2268,-0.0029,-0.0016,-0.0012,2.00E-04,-2.00E-04,3.00E-04,40031,2021-05-19 13:01:56:648
8.916,-0.1878,-4.2646,8.847,-0.1873,-4.2268,-0.0029,-0.0016,-0.0012,2.00E-04,-2.00E-04,3.00E-04,40034,2021-05-19 13:01:56:651
8.916,-0.1878,-4.2646,8.847,-0.1873,-4.2268,-0.0029,-0.0016,-0.0012,2.00E-04,-2.00E-04,3.00E-04,40034,2021-05-19 13:01:56:651
8.916,-0.1878,-4.2646,8.847,-0.1873,-4.2268,-0.0029,-0.0016,-0.0012,2.00E-04,-2.00E-04,3.00E-04,40034,2021-05-19 13:01:56:651
8.916,-0.1878,-4.2646,8.847,-0.1873,-4.2268,-0.0029,-0.0016,-0.0012,2.00E-04,-2.00E-04,3.00E-04,40034,2021-05-19 13:01:56:651
8.916,-0.1878,-4.2646,8.847,-0.1873,-4.2268,-0.0029,-0.0016,-0.0012,2.00E-04,-2.00E-04,3.00E-04,40035,2021-05-19 13:01:56:652
8.916,-0.1878,-4.2646,8.847,-0.1873,-4.2268,-0.0029,-0.0016,-0.0012,2.00E-04,-2.00E-04,3.00E-04,40040,2021-05-19 13:01:56:657
8.9225,-0.1878,-4.2479,8.8521,-0.1859,-4.2161,0.0015,-0.0014,0.002,-9.00E-04,9.00E-04,6.00E-04,40518,2021-05-19 13:01:57:135
8.9154,-0.1893,-4.2508,8.8522,-0.1862,-4.216,-0.0082,-0.0011,-0.0032,2.00E-04,0.0015,0.0015,41018,2021-05-19 13:01:57:635
8.9207,-0.1971,-4.258,8.8516,-0.1855,-4.2172,-0.0069,-0.0058,-0.0088,-3.00E-04,0.004,-0.0024,41518,2021-05-19 13:01:58:135
8.9291,-0.1941,-4.2568,8.8514,-0.1848,-4.2178,-0.0068,0.0078,-0.0082,-0.0012,-0.0024,-5.00E-04,42018,2021-05-19 13:01:58:635
8.9103,-0.2001,-4.2978,8.8535,-0.1883,-4.2132,0.02,-0.0213,0.017,-0.0034,0.0194,0.0023,42518,2021-05-19 13:01:59:135
8.9252,-0.195,-4.2446,8.8362,-0.1777,-4.2498,0,0,0,-5.00E-04,-5.00E-04,-2.00E-04,43018,2021-05-19 13:01:59:635
8.9252,-0.195,-4.2446,8.8362,-0.1777,-4.2498,0,0,0,-5.00E-04,-5.00E-04,-2.00E-04,43019,2021-05-19 13:01:59:636
8.9252,-0.195,-4.2446,8.8362,-0.1777,-4.2498,0,0,0,-5.00E-04,-5.00E-04,-2.00E-04,43019,2021-05-19 13:01:59:636
8.9252,-0.195,-4.2446,8.8362,-0.1777,-4.2498,0,0,0,-5.00E-04,-5.00E-04,-2.00E-04,43019,2021-05-19 13:01:59:636
8.9252,-0.195,-4.2446,8.8362,-0.1777,-4.2498,0,0,0,-5.00E-04,-5.00E-04,-2.00E-04,43035,2021-05-19 13:01:59:652
8.9345,-0.2025,-4.2401,8.856,-0.1873,-4.208,-0.0032,-0.0088,6.00E-04,-6.00E-04,0.0027,-0.0018,43535,2021-05-19 13:02:00:152
8.9213,-0.1816,-4.2413,8.8541,-0.1875,-4.2119,-0.0093,0.0098,-0.0018,2.00E-04,-2.00E-04,0,44035,2021-05-19 13:02:00:652
8.8744,-0.1929,-4.3597,8.8614,-0.1761,-4.197,-0.021,-0.0353,-0.1378,-6.00E-04,0.0374,-0.0026,44535,2021-05-19 13:02:01:152
8.9339,-0.1759,-4.2021,8.8651,-0.1832,-4.1889,-0.0086,0.0086,4.00E-04,-9.00E-04,-0.0023,-0.0031,45035,2021-05-19 13:02:01:652
8.945,-0.2246,-4.2236,8.8662,-0.2235,-4.1846,0,0,0,-0.0099,-0.015,-0.0041,45803,2021-05-19 13:02:02:420
8.945,-0.2246,-4.2236,8.8662,-0.2235,-4.1846,0,0,0,-0.0099,-0.015,-0.0041,45803,2021-05-19 13:02:02:420
8.945,-0.2246,-4.2236,8.8662,-0.2235,-4.1846,0,0,0,-0.0099,-0.015,-0.0041,45804,2021-05-19 13:02:02:421
8.945,-0.2246,-4.2236,8.8662,-0.2235,-4.1846,0,0,0,-0.0099,-0.015,-0.0041,45804,2021-05-19 13:02:02:421
8.945,-0.2246,-4.2236,8.8662,-0.2235,-4.1846,0,0,0,-0.0099,-0.015,-0.0041,45804,2021-05-19 13:02:02:421
8.945,-0.2246,-4.2236,8.8662,-0.2235,-4.1846,0,0,0,-0.0099,-0.015,-0.0041,45804,2021-05-19 13:02:02:421
8.945,-0.2246,-4.2236,8.8662,-0.2235,-4.1846,0,0,0,-0.0099,-0.015,-0.0041,45804,2021-05-19 13:02:02:421
8.945,-0.2246,-4.2236,8.8662,-0.2235,-4.1846,0,0,0,-0.0099,-0.015,-0.0041,45805,2021-05-19 13:02:02:422
8.945,-0.2246,-4.2236,8.8662,-0.2235,-4.1846,0,0,0,-0.0099,-0.015,-0.0041,45805,2021-05-19 13:02:02:422
8.945,-0.2246,-4.2236,8.8662,-0.2235,-4.1846,0,0,0,-0.0099,-0.015,-0.0041,45805,2021-05-19 13:02:02:422
8.945,-0.2246,-4.2236,8.8662,-0.2235,-4.1846,0,0,0,-0.0099,-0.015,-0.0041,45805,2021-05-19 13:02:02:422
8.945,-0.2246,-4.2236,8.8662,-0.2235,-4.1846,0,0,0,-0.0099,-0.015,-0.0041,45805,2021-05-19 13:02:02:422
8.945,-0.2246,-4.2236,8.8662,-0.2235,-4.1846,0,0,0,-0.0099,-0.015,-0.0041,45805,2021-05-19 13:02:02:422
8.945,-0.2246,-4.2236,8.8662,-0.2235,-4.1846,0,0,0,-0.0099,-0.015,-0.0041,45805,2021-05-19 13:02:02:422
-0.4289,0.2689,-9.6251,-0.6092,-0.3571,-9.7812,0,0,0,0.0643,-0.095,0.7504,46251,2021-05-19 13:02:02:868
-0.4289,0.2689,-9.6251,-0.6092,-0.3571,-9.7812,0,0,0,0.0643,-0.095,0.7504,46253,2021-05-19 13:02:02:870
-0.4289,0.2689,-9.6251,-0.6092,-0.3571,-9.7812,0,0,0,0.0643,-0.095,0.7504,46254,2021-05-19 13:02:02:871
-0.4289,0.2689,-9.6251,-0.6092,-0.3571,-9.7812,0,0,0,0.0643,-0.095,0.7504,46254,2021-05-19 13:02:02:871
-0.4289,0.2689,-9.6251,-0.6092,-0.3571,-9.7812,0,0,0,0.0643,-0.095,0.7504,46255,2021-05-19 13:02:02:872
-0.4289,0.2689,-9.6251,-0.6092,-0.3571,-9.7812,0,0,0,0.0643,-0.095,0.7504,46256,2021-05-19 13:02:02:873
-0.4289,0.2689,-9.6251,-0.6092,-0.3571,-9.7812,0,0,0,0.0643,-0.095,0.7504,46256,2021-05-19 13:02:02:873
-0.4289,0.2689,-9.6251,-0.6092,-0.3571,-9.7812,0,0,0,0.0643,-0.095,0.7504,46257,2021-05-19 13:02:02:874
0.2163,0.7696,-9.7648,-0.6092,-0.3571,-9.7812,0,0,0,0.0643,-0.095,0.7504,46610,2021-05-19 13:02:03:227
0.2163,0.7696,-9.7648,-0.6092,-0.3571,-9.7812,0,0,0,0.0643,-0.095,0.7504,46612,2021-05-19 13:02:03:229
0.2163,0.7696,-9.7648,-0.6092,-0.3571,-9.7812,0,0,0,0.0643,-0.095,0.7504,46613,2021-05-19 13:02:03:230
0.2163,0.7696,-9.7648,-0.6092,-0.3571,-9.7812,0,0,0,0.0643,-0.095,0.7504,46613,2021-05-19 13:02:03:230
0.2163,0.7696,-9.7648,-0.6092,-0.3571,-9.7812,0,0,0,0.0643,-0.095,0.7504,46613,2021-05-19 13:02:03:230
0.2163,0.7696,-9.7648,-0.6092,-0.3571,-9.7812,0,0,0,0.0643,-0.095,0.7504,46614,2021-05-19 13:02:03:231
0.2163,0.7696,-9.7648,-0.6092,-0.3571,-9.7812,0,0,0,0.0643,-0.095,0.7504,46614,2021-05-19 13:02:03:231
0.2163,0.7696,-9.7648,-0.6092,-0.3571,-9.7812,0,0,0,0.0643,-0.095,0.7504,46614,2021-05-19 13:02:03:231
0.1705,0.7825,-9.7762,0.2214,0.7587,-9.7748,0,0,0,-0.0105,-0.0195,-0.0153,46668,2021-05-19 13:02:03:285
-0.1319,0.6957,-9.7516,-0.0784,0.6094,-9.7874,-0.0645,0.0211,0.0129,0.0212,0.0057,0.024,47404,2021-05-19 13:02:04:021
-0.1319,0.6957,-9.7516,-0.0784,0.6094,-9.7874,-0.0645,0.0211,0.0129,0.0212,0.0057,0.024,47405,2021-05-19 13:02:04:022
-0.1319,0.6957,-9.7516,-0.0784,0.6094,-9.7874,-0.0645,0.0211,0.0129,0.0212,0.0057,0.024,47405,2021-05-19 13:02:04:022
-0.1319,0.6957,-9.7516,-0.0784,0.6094,-9.7874,-0.0645,0.0211,0.0129,0.0212,0.0057,0.024,47405,2021-05-19 13:02:04:022
0.2728,0.6162,-9.7777,0.2409,0.6106,-9.7847,0.0793,-0.0396,-0.0175,-0.0211,-0.0095,0.0402,47796,2021-05-19 13:02:04:413
0.3048,0.6308,-9.7834,0.2463,0.6335,-9.7831,0.0748,0.015,0.0071,-0.0286,-0.0069,-0.0504,48297,2021-05-19 13:02:04:914
0.23,0.3511,-9.9135,0.2942,0.5345,-9.7877,0.1788,-0.1069,0.0262,0.0261,0.0038,-0.3428,48823,2021-05-19 13:02:05:440
-0.1325,0.8755,-9.7164,-0.1655,0.8559,-9.7678,0.0161,0.0454,0.0378,0.0182,5.00E-04,-0.0345,49299,2021-05-19 13:02:05:916
0.1014,0.7747,-9.7822,-0.1012,0.8467,-9.7695,0.1304,-0.0172,0.003,-0.0363,-0.0218,-0.1335,49864,2021-05-19 13:02:06:481
0.1014,0.7747,-9.7822,-0.1012,0.8467,-9.7695,0.1304,-0.0172,0.003,-0.0363,-0.0218,-0.1335,49865,2021-05-19 13:02:06:482
0.1014,0.7747,-9.7822,-0.1012,0.8467,-9.7695,0.1304,-0.0172,0.003,-0.0363,-0.0218,-0.1335,49865,2021-05-19 13:02:06:482
0.1014,0.7747,-9.7822,-0.1012,0.8467,-9.7695,0.1304,-0.0172,0.003,-0.0363,-0.0218,-0.1335,49865,2021-05-19 13:02:06:482
0.1014,0.7747,-9.7822,-0.1012,0.8467,-9.7695,0.1304,-0.0172,0.003,-0.0363,-0.0218,-0.1335,49866,2021-05-19 13:02:06:483
0.1014,0.7747,-9.7822,-0.1012,0.8467,-9.7695,0.1304,-0.0172,0.003,-0.0363,-0.0218,-0.1335,49866,2021-05-19 13:02:06:483
0.1014,0.7747,-9.7822,-0.1012,0.8467,-9.7695,0.1304,-0.0172,0.003,-0.0363,-0.0218,-0.1335,49866,2021-05-19 13:02:06:483
0.1014,0.7747,-9.7822,-0.1012,0.8467,-9.7695,0.1304,-0.0172,0.003,-0.0363,-0.0218,-0.1335,49866,2021-05-19 13:02:06:483
0.1014,0.7747,-9.7822,-0.1012,0.8467,-9.7695,0.1304,-0.0172,0.003,-0.0363,-0.0218,-0.1335,49866,2021-05-19 13:02:06:483
0.1014,0.7747,-9.7822,-0.1012,0.8467,-9.7695,0.1304,-0.0172,0.003,-0.0363,-0.0218,-0.1335,49867,2021-05-19 13:02:06:484
0.1014,0.7747,-9.7822,-0.1012,0.8467,-9.7695,0.1304,-0.0172,0.003,-0.0363,-0.0218,-0.1335,49867,2021-05-19 13:02:06:484
0.1014,0.7747,-9.7822,-0.1012,0.8467,-9.7695,0.1304,-0.0172,0.003,-0.0363,-0.0218,-0.1335,49867,2021-05-19 13:02:06:484
0.1014,0.7747,-9.7822,-0.1012,0.8467,-9.7695,0.1304,-0.0172,0.003,-0.0363,-0.0218,-0.1335,49867,2021-05-19 13:02:06:484
0.1014,0.7747,-9.7822,-0.1012,0.8467,-9.7695,0.1304,-0.0172,0.003,-0.0363,-0.0218,-0.1335,49867,2021-05-19 13:02:06:484
0.0876,0.7783,-9.8118,0.1507,0.7864,-9.7739,0,0,0,0.0015,-0.0041,-0.0173,49950,2021-05-19 13:02:06:567
-0.224,1.4545,-9.6993,-0.2138,1.4426,-9.6976,0,0,0,-2.00E-04,0.0041,-0.0058,50449,2021-05-19 13:02:07:066
-0.224,1.4545,-9.6993,-0.2138,1.4426,-9.6976,0,0,0,-2.00E-04,0.0041,-0.0058,50450,2021-05-19 13:02:07:067
-0.224,1.4545,-9.6993,-0.2138,1.4426,-9.6976,0,0,0,-2.00E-04,0.0041,-0.0058,50451,2021-05-19 13:02:07:068
-0.224,1.4545,-9.6993,-0.2138,1.4426,-9.6976,0,0,0,-2.00E-04,0.0041,-0.0058,50451,2021-05-19 13:02:07:068
-0.224,1.4545,-9.6993,-0.2138,1.4426,-9.6976,0,0,0,-2.00E-04,0.0041,-0.0058,50452,2021-05-19 13:02:07:069
-0.224,1.4545,-9.6993,-0.2138,1.4426,-9.6976,0,0,0,-2.00E-04,0.0041,-0.0058,50452,2021-05-19 13:02:07:069
-0.224,1.4545,-9.6993,-0.2138,1.4426,-9.6976,0,0,0,-2.00E-04,0.0041,-0.0058,50453,2021-05-19 13:02:07:070
-0.224,1.4545,-9.6993,-0.2138,1.4426,-9.6976,0,0,0,-2.00E-04,0.0041,-0.0058,50453,2021-05-19 13:02:07:070
-0.224,1.4545,-9.6993,-0.2138,1.4426,-9.6976,0,0,0,-2.00E-04,0.0041,-0.0058,50453,2021-05-19 13:02:07:070
-0.224,1.4545,-9.6993,-0.2138,1.4426,-9.6976,0,0,0,-2.00E-04,0.0041,-0.0058,50454,2021-05-19 13:02:07:071
-0.224,1.4545,-9.6993,-0.2138,1.4426,-9.6976,0,0,0,-2.00E-04,0.0041,-0.0058,50454,2021-05-19 13:02:07:071
-0.224,1.4545,-9.6993,-0.2138,1.4426,-9.6976,0,0,0,-2.00E-04,0.0041,-0.0058,50454,2021-05-19 13:02:07:071
-0.224,1.4545,-9.6993,-0.2138,1.4426,-9.6976,0,0,0,-2.00E-04,0.0041,-0.0058,50454,2021-05-19 13:02:07:071
-0.224,1.4545,-9.6993,-0.2138,1.4426,-9.6976,0,0,0,-2.00E-04,0.0041,-0.0058,50455,2021-05-19 13:02:07:072
-0.224,1.4545,-9.6993,-0.2138,1.4426,-9.6976,0,0,0,-2.00E-04,0.0041,-0.0058,50455,2021-05-19 13:02:07:072
-0.224,1.4545,-9.6993,-0.2138,1.4426,-9.6976,0,0,0,-2.00E-04,0.0041,-0.0058,50455,2021-05-19 13:02:07:072
-0.224,1.4545,-9.6993,-0.2138,1.4426,-9.6976,0,0,0,-2.00E-04,0.0041,-0.0058,50455,2021-05-19 13:02:07:072
-0.224,1.4545,-9.6993,-0.2138,1.4426,-9.6976,0,0,0,-2.00E-04,0.0041,-0.0058,50456,2021-05-19 13:02:07:073
-0.224,1.4545,-9.6993,-0.2138,1.4426,-9.6976,0,0,0,-2.00E-04,0.0041,-0.0058,50456,2021-05-19 13:02:07:073
-0.224,1.4545,-9.6993,-0.2138,1.4426,-9.6976,0,0,0,-2.00E-04,0.0041,-0.0058,50736,2021-05-19 13:02:07:353
-0.224,1.4545,-9.6993,-0.2138,1.4426,-9.6976,0,0,0,-2.00E-04,0.0041,-0.0058,50737,2021-05-19 13:02:07:354
-0.224,1.4545,-9.6993,-0.2138,1.4426,-9.6976,0,0,0,-2.00E-04,0.0041,-0.0058,50737,2021-05-19 13:02:07:354
-0.224,1.4545,-9.6993,-0.2138,1.4426,-9.6976,0,0,0,-2.00E-04,0.0041,-0.0058,50738,2021-05-19 13:02:07:355
-0.224,1.4545,-9.6993,-0.2138,1.4426,-9.6976,0,0,0,-2.00E-04,0.0041,-0.0058,50738,2021-05-19 13:02:07:355
-0.224,1.4545,-9.6993,-0.2138,1.4426,-9.6976,0,0,0,-2.00E-04,0.0041,-0.0058,50738,2021-05-19 13:02:07:355
-0.224,1.4545,-9.6993,-0.2138,1.4426,-9.6976,0,0,0,-2.00E-04,0.0041,-0.0058,50739,2021-05-19 13:02:07:356
-0.224,1.4545,-9.6993,-0.2138,1.4426,-9.6976,0,0,0,-2.00E-04,0.0041,-0.0058,50739,2021-05-19 13:02:07:356
-0.224,1.4545,-9.6993,-0.2138,1.4426,-9.6976,0,0,0,-2.00E-04,0.0041,-0.0058,50740,2021-05-19 13:02:07:357
-0.224,1.4545,-9.6993,-0.2138,1.4426,-9.6976,0,0,0,-2.00E-04,0.0041,-0.0058,50740,2021-05-19 13:02:07:357
-0.224,1.4545,-9.6993,-0.2138,1.4426,-9.6976,0,0,0,-2.00E-04,0.0041,-0.0058,50740,2021-05-19 13:02:07:357
-0.224,1.4545,-9.6993,-0.2138,1.4426,-9.6976,0,0,0,-2.00E-04,0.0041,-0.0058,50740,2021-05-19 13:02:07:357
-0.224,1.4545,-9.6993,-0.2138,1.4426,-9.6976,0,0,0,-2.00E-04,0.0041,-0.0058,50740,2021-05-19 13:02:07:357
-0.224,1.4545,-9.6993,-0.2138,1.4426,-9.6976,0,0,0,-2.00E-04,0.0041,-0.0058,50741,2021-05-19 13:02:07:358
-0.224,1.4545,-9.6993,-0.2138,1.4426,-9.6976,0,0,0,-2.00E-04,0.0041,-0.0058,50741,2021-05-19 13:02:07:358
-0.224,1.4545,-9.6993,-0.2138,1.4426,-9.6976,0,0,0,-2.00E-04,0.0041,-0.0058,50741,2021-05-19 13:02:07:358
-0.224,1.4545,-9.6993,-0.2138,1.4426,-9.6976,0,0,0,-2.00E-04,0.0041,-0.0058,50741,2021-05-19 13:02:07:358
-0.2925,1.5126,-9.6838,-0.2901,1.5336,-9.6816,-0.005,-0.0129,-0.0091,0.0027,-0.0032,0.0058,50889,2021-05-19 13:02:07:506
-0.2952,1.5102,-9.6921,-0.2763,1.5213,-9.684,-0.0121,-0.0195,-0.0127,0.0018,6.00E-04,-0.0069,51389,2021-05-19 13:02:08:006
-0.2809,1.5009,-9.6924,-0.274,1.5203,-9.6842,0.0159,-0.0122,-0.0082,5.00E-04,0.0012,-0.0012,51888,2021-05-19 13:02:08:505
-0.3153,1.4928,-9.6984,-0.2791,1.52,-9.6841,-0.0284,-0.0112,-0.006,6.00E-04,0.0021,-0.0067,52388,2021-05-19 13:02:09:005
-0.2922,1.5087,-9.6906,-0.2773,1.5209,-9.684,-0.0255,-0.0135,-0.0056,0,0.0011,0.0023,52888,2021-05-19 13:02:09:505
-0.2647,1.5335,-9.6769,-0.2762,1.5195,-9.6843,0.007,0.0137,0.0037,0.0026,9.00E-04,0.0058,53388,2021-05-19 13:02:10:005
-0.3036,1.5245,-9.6885,-0.2674,1.5195,-9.6845,0.0119,-0.005,-0.0077,-0.002,0.0024,-0.0128,53888,2021-05-19 13:02:10:505
-0.2803,1.5266,-9.6993,-0.2735,1.518,-9.6846,5.00E-04,0.0171,0.0074,0.002,-0.0015,0.0017,54389,2021-05-19 13:02:11:006
-0.2827,1.5129,-9.7167,-0.27,1.5176,-9.6848,-0.0187,-0.0071,-0.0106,-0.0015,0.002,-0.0018,54888,2021-05-19 13:02:11:505
-0.2728,1.5296,-9.6981,-0.2665,1.515,-9.6852,-0.0044,0.0106,0.012,0,0.0023,-0.0037,55389,2021-05-19 13:02:12:006
-0.2755,1.5362,-9.6948,-0.2684,1.5123,-9.6856,-0.0185,-0.0058,-0.0062,0.0023,0.0026,-0.0041,55889,2021-05-19 13:02:12:506
-0.2656,1.5138,-9.7137,-0.2612,1.5119,-9.6859,0,0,0,-8.00E-04,0.0038,-0.006,56389,2021-05-19 13:02:13:006
-0.2495,1.5305,-9.6939,-0.2494,1.5095,-9.6866,0,0,0,3.00E-04,0.0035,-0.0031,56889,2021-05-19 13:02:13:506
-0.2584,1.5395,-9.6909,-0.2596,1.5236,-9.6841,-0.0308,0.0572,0.0592,0.0215,0.006,-0.0027,57389,2021-05-19 13:02:14:006
-0.2847,1.5467,-9.6739,-0.2492,1.521,-9.6848,0.0635,0.016,0.0255,-0.0012,-0.0027,-0.0171,57922,2021-05-19 13:02:14:539
-0.2847,1.5467,-9.6739,-0.2492,1.521,-9.6848,0.0635,0.016,0.0255,-0.0012,-0.0027,-0.0171,57923,2021-05-19 13:02:14:540
-0.2847,1.5467,-9.6739,-0.2492,1.521,-9.6848,0.0635,0.016,0.0255,-0.0012,-0.0027,-0.0171,57923,2021-05-19 13:02:14:540
-0.2847,1.5467,-9.6739,-0.2492,1.521,-9.6848,0.0635,0.016,0.0255,-0.0012,-0.0027,-0.0171,57924,2021-05-19 13:02:14:541
-0.2847,1.5467,-9.6739,-0.2492,1.521,-9.6848,0.0635,0.016,0.0255,-0.0012,-0.0027,-0.0171,57924,2021-05-19 13:02:14:541
-0.2847,1.5467,-9.6739,-0.2492,1.521,-9.6848,0.0635,0.016,0.0255,-0.0012,-0.0027,-0.0171,57924,2021-05-19 13:02:14:541
-0.2847,1.5467,-9.6739,-0.2492,1.521,-9.6848,0.0635,0.016,0.0255,-0.0012,-0.0027,-0.0171,57924,2021-05-19 13:02:14:541
-0.2847,1.5467,-9.6739,-0.2492,1.521,-9.6848,0.0635,0.016,0.0255,-0.0012,-0.0027,-0.0171,57924,2021-05-19 13:02:14:541
-0.2847,1.5467,-9.6739,-0.2492,1.521,-9.6848,0.0635,0.016,0.0255,-0.0012,-0.0027,-0.0171,57925,2021-05-19 13:02:14:542
-0.2847,1.5467,-9.6739,-0.2492,1.521,-9.6848,0.0635,0.016,0.0255,-0.0012,-0.0027,-0.0171,57925,2021-05-19 13:02:14:542
-0.2847,1.5467,-9.6739,-0.2492,1.521,-9.6848,0.0635,0.016,0.0255,-0.0012,-0.0027,-0.0171,57925,2021-05-19 13:02:14:542
-0.2847,1.5467,-9.6739,-0.2492,1.521,-9.6848,0.0635,0.016,0.0255,-0.0012,-0.0027,-0.0171,57925,2021-05-19 13:02:14:542
-0.2847,1.5467,-9.6739,-0.2492,1.521,-9.6848,0.0635,0.016,0.0255,-0.0012,-0.0027,-0.0171,57925,2021-05-19 13:02:14:542
-0.2847,1.5467,-9.6739,-0.2492,1.521,-9.6848,0.0635,0.016,0.0255,-0.0012,-0.0027,-0.0171,57925,2021-05-19 13:02:14:542
-0.3652,1.4949,-9.7214,-0.3436,1.5097,-9.6837,0,0,0,0.0043,-0.0046,0.0272,57936,2021-05-19 13:02:14:553
-0.23,1.5278,-9.6808,-0.2072,1.5205,-9.6858,-0.0206,0.0196,0.0146,-0.002,0.0027,-0.0069,58438,2021-05-19 13:02:15:055
-0.2375,1.5156,-9.6915,-0.2139,1.5227,-9.6853,-0.0225,-0.0041,-0.0037,-8.00E-04,-0.0011,8.00E-04,58936,2021-05-19 13:02:15:553
-0.1854,1.5129,-9.6894,-0.2229,1.5211,-9.6854,-0.0143,-0.0144,-0.005,-0.0018,0.0021,0.004,59436,2021-05-19 13:02:16:053
-0.2536,1.526,-9.6876,-0.2399,1.5217,-9.6849,-0.0229,-0.0302,-0.0132,-0.0031,-0.0027,-0.0078,59937,2021-05-19 13:02:16:554
-0.2438,1.5251,-9.7017,-0.2462,1.5281,-9.6837,-5.00E-04,-0.0043,-0.0107,2.00E-04,0.0015,-0.0214,60436,2021-05-19 13:02:17:053
-0.2536,1.5051,-9.7053,-0.2714,1.5206,-9.6842,-0.0103,0.0191,0.0062,0.005,-0.0037,0.0102,60936,2021-05-19 13:02:17:553
-0.2698,1.5117,-9.6969,-0.2716,1.5125,-9.6855,0.0291,-0.0354,-0.0169,-0.0069,-0.0098,-0.0038,61439,2021-05-19 13:02:18:056
-0.2698,1.5117,-9.6969,-0.2716,1.5125,-9.6855,0.0291,-0.0354,-0.0169,-0.0069,-0.0098,-0.0038,61440,2021-05-19 13:02:18:057
-0.2698,1.5117,-9.6969,-0.2716,1.5125,-9.6855,0.0291,-0.0354,-0.0169,-0.0069,-0.0098,-0.0038,61441,2021-05-19 13:02:18:058
-0.2698,1.5117,-9.6969,-0.2716,1.5125,-9.6855,0.0291,-0.0354,-0.0169,-0.0069,-0.0098,-0.0038,61442,2021-05-19 13:02:18:059
-0.2698,1.5117,-9.6969,-0.2716,1.5125,-9.6855,0.0291,-0.0354,-0.0169,-0.0069,-0.0098,-0.0038,61443,2021-05-19 13:02:18:060
-0.2698,1.5117,-9.6969,-0.2716,1.5125,-9.6855,0.0291,-0.0354,-0.0169,-0.0069,-0.0098,-0.0038,61443,2021-05-19 13:02:18:060
-0.2698,1.5117,-9.6969,-0.2716,1.5125,-9.6855,0.0291,-0.0354,-0.0169,-0.0069,-0.0098,-0.0038,61443,2021-05-19 13:02:18:060
-0.2698,1.5117,-9.6969,-0.2716,1.5125,-9.6855,0.0291,-0.0354,-0.0169,-0.0069,-0.0098,-0.0038,61444,2021-05-19 13:02:18:061
-0.2698,1.5117,-9.6969,-0.2716,1.5125,-9.6855,0.0291,-0.0354,-0.0169,-0.0069,-0.0098,-0.0038,61444,2021-05-19 13:02:18:061
-0.277,1.5733,-9.6485,-0.2832,1.5556,-9.6783,0,0,0,-0.0031,-0.0037,0.0069,61503,2021-05-19 13:02:18:120
-0.4478,1.5033,-9.6852,-0.4334,1.5028,-9.6811,-0.0106,1.00E-04,-0.006,0.004,0.0024,-0.0018,62003,2021-05-19 13:02:18:620
-0.3969,1.4797,-9.7098,-0.4229,1.4798,-9.6851,0.0193,-0.0168,-0.0183,0.0018,-0.0014,0.0063,62503,2021-05-19 13:02:19:120
-0.3679,1.4937,-9.7448,-0.5487,1.484,-9.6782,-0.0461,-0.0815,-0.1146,0.0177,-0.0133,0.0151,63002,2021-05-19 13:02:19:619
-0.4702,1.4743,-9.6972,-0.487,1.4699,-9.6836,0.0622,-0.0052,0.0062,2.00E-04,0.0058,-0.0194,63503,2021-05-19 13:02:20:120
-0.4869,1.448,-9.7403,-0.4763,1.4604,-9.6856,-0.0102,-0.001,-0.0064,0.0234,0.0082,-0.0304,64003,2021-05-19 13:02:20:620
-0.2031,1.4758,-9.769,-0.4486,1.3596,-9.7016,0.0153,-0.1573,-0.1033,0.0625,0.0145,-0.1213,64503,2021-05-19 13:02:21:120
-0.1986,1.1303,-9.7164,-0.3102,1.1217,-9.7373,0.1473,-0.0532,-0.1332,-0.0145,-0.0087,-0.0027,65003,2021-05-19 13:02:21:620
-0.2767,1.054,-9.7522,-0.3159,1.0531,-9.7448,0.0409,0.0152,0.0258,0.0166,-0.0012,0.0866,65509,2021-05-19 13:02:22:126
-0.1496,0.9529,-9.7582,-0.1917,0.9007,-9.7633,0.0776,-0.0018,0.0532,-0.0041,-0.0027,0.0267,66004,2021-05-19 13:02:22:621
-0.2073,0.9272,-9.7846,-0.198,0.9289,-9.7606,-0.0112,0.0068,0.0258,-0.0157,-0.0052,-0.0324,66503,2021-05-19 13:02:23:120
-0.0861,0.8788,-9.7481,-0.1833,0.9246,-9.7612,0.1054,0.1728,0.1625,-0.0293,-0.0715,0.1487,67245,2021-05-19 13:02:23:862
-0.0861,0.8788,-9.7481,-0.1833,0.9246,-9.7612,0.1054,0.1728,0.1625,-0.0293,-0.0715,0.1487,67245,2021-05-19 13:02:23:862
-0.0861,0.8788,-9.7481,-0.1833,0.9246,-9.7612,0.1054,0.1728,0.1625,-0.0293,-0.0715,0.1487,67246,2021-05-19 13:02:23:863
-0.0861,0.8788,-9.7481,-0.1833,0.9246,-9.7612,0.1054,0.1728,0.1625,-0.0293,-0.0715,0.1487,67246,2021-05-19 13:02:23:863
-0.0861,0.8788,-9.7481,-0.1833,0.9246,-9.7612,0.1054,0.1728,0.1625,-0.0293,-0.0715,0.1487,67246,2021-05-19 13:02:23:863
-0.0861,0.8788,-9.7481,-0.1833,0.9246,-9.7612,0.1054,0.1728,0.1625,-0.0293,-0.0715,0.1487,67247,2021-05-19 13:02:23:864
-0.0861,0.8788,-9.7481,-0.1833,0.9246,-9.7612,0.1054,0.1728,0.1625,-0.0293,-0.0715,0.1487,67247,2021-05-19 13:02:23:864
-0.0861,0.8788,-9.7481,-0.1833,0.9246,-9.7612,0.1054,0.1728,0.1625,-0.0293,-0.0715,0.1487,67247,2021-05-19 13:02:23:864
-0.0861,0.8788,-9.7481,-0.1833,0.9246,-9.7612,0.1054,0.1728,0.1625,-0.0293,-0.0715,0.1487,67250,2021-05-19 13:02:23:867
-0.0861,0.8788,-9.7481,-0.1833,0.9246,-9.7612,0.1054,0.1728,0.1625,-0.0293,-0.0715,0.1487,67250,2021-05-19 13:02:23:867
-0.0861,0.8788,-9.7481,-0.1833,0.9246,-9.7612,0.1054,0.1728,0.1625,-0.0293,-0.0715,0.1487,67251,2021-05-19 13:02:23:868
-0.0861,0.8788,-9.7481,-0.1833,0.9246,-9.7612,0.1054,0.1728,0.1625,-0.0293,-0.0715,0.1487,67251,2021-05-19 13:02:23:868
-0.0861,0.8788,-9.7481,-0.1833,0.9246,-9.7612,0.1054,0.1728,0.1625,-0.0293,-0.0715,0.1487,67252,2021-05-19 13:02:23:869
-0.0861,0.8788,-9.7481,-0.1833,0.9246,-9.7612,0.1054,0.1728,0.1625,-0.0293,-0.0715,0.1487,67252,2021-05-19 13:02:23:869
-0.0861,0.8788,-9.7481,-0.1833,0.9246,-9.7612,0.1054,0.1728,0.1625,-0.0293,-0.0715,0.1487,67253,2021-05-19 13:02:23:870
-0.0769,0.8695,-9.7965,-0.1204,0.8904,-9.7654,0,0,0,-0.0035,0.0015,-0.0079,67619,2021-05-19 13:02:24:236
-0.0826,0.7857,-9.7744,-0.1076,0.7794,-9.775,0.0195,0.0247,0.0169,0.005,0.0037,-8.00E-04,68109,2021-05-19 13:02:24:726
-0.0826,0.7857,-9.7744,-0.1076,0.7794,-9.775,0.0195,0.0247,0.0169,0.005,0.0037,-8.00E-04,68111,2021-05-19 13:02:24:728
-0.0826,0.7857,-9.7744,-0.1076,0.7794,-9.775,0.0195,0.0247,0.0169,0.005,0.0037,-8.00E-04,68111,2021-05-19 13:02:24:728
-0.0826,0.7857,-9.7744,-0.1076,0.7794,-9.775,0.0195,0.0247,0.0169,0.005,0.0037,-8.00E-04,68112,2021-05-19 13:02:24:729
-0.0826,0.7857,-9.7744,-0.1076,0.7794,-9.775,0.0195,0.0247,0.0169,0.005,0.0037,-8.00E-04,68112,2021-05-19 13:02:24:729
-0.1161,0.7956,-9.7582,-0.1583,0.764,-9.7756,0,0,0,-8.00E-04,0.002,2.00E-04,68583,2021-05-19 13:02:25:200
-0.1161,0.7956,-9.7582,-0.1583,0.764,-9.7756,0,0,0,-8.00E-04,0.002,2.00E-04,68583,2021-05-19 13:02:25:200
-0.1161,0.7956,-9.7582,-0.1583,0.764,-9.7756,0,0,0,-8.00E-04,0.002,2.00E-04,68584,2021-05-19 13:02:25:201
-0.1161,0.7956,-9.7582,-0.1583,0.764,-9.7756,0,0,0,-8.00E-04,0.002,2.00E-04,68584,2021-05-19 13:02:25:201
-0.1161,0.7956,-9.7582,-0.1583,0.764,-9.7756,0,0,0,-8.00E-04,0.002,2.00E-04,68584,2021-05-19 13:02:25:201
-0.1161,0.7956,-9.7582,-0.1583,0.764,-9.7756,0,0,0,-8.00E-04,0.002,2.00E-04,68585,2021-05-19 13:02:25:202
-0.1161,0.7956,-9.7582,-0.1583,0.764,-9.7756,0,0,0,-8.00E-04,0.002,2.00E-04,68585,2021-05-19 13:02:25:202
-0.1161,0.7956,-9.7582,-0.1583,0.764,-9.7756,0,0,0,-8.00E-04,0.002,2.00E-04,68585,2021-05-19 13:02:25:202
-0.1161,0.7956,-9.7582,-0.1583,0.764,-9.7756,0,0,0,-8.00E-04,0.002,2.00E-04,68585,2021-05-19 13:02:25:202
-0.1161,0.7956,-9.7582,-0.1583,0.764,-9.7756,0,0,0,-8.00E-04,0.002,2.00E-04,68585,2021-05-19 13:02:25:202
-0.1161,0.7956,-9.7582,-0.1583,0.764,-9.7756,0,0,0,-8.00E-04,0.002,2.00E-04,68585,2021-05-19 13:02:25:202
-0.1161,0.7956,-9.7582,-0.1583,0.764,-9.7756,0,0,0,-8.00E-04,0.002,2.00E-04,68586,2021-05-19 13:02:25:203
-0.1161,0.7956,-9.7582,-0.1583,0.764,-9.7756,0,0,0,-8.00E-04,0.002,2.00E-04,68586,2021-05-19 13:02:25:203
-0.1161,0.7956,-9.7582,-0.1583,0.764,-9.7756,0,0,0,-8.00E-04,0.002,2.00E-04,68586,2021-05-19 13:02:25:203
-0.1161,0.7956,-9.7582,-0.1583,0.764,-9.7756,0,0,0,-8.00E-04,0.002,2.00E-04,68586,2021-05-19 13:02:25:203
-0.1161,0.7956,-9.7582,-0.1583,0.764,-9.7756,0,0,0,-8.00E-04,0.002,2.00E-04,68586,2021-05-19 13:02:25:203
-0.1169,0.7238,-9.7741,-0.151,0.7094,-9.7798,0,0,0,0.0021,-0.0032,5.00E-04,69009,2021-05-19 13:02:25:626
-0.1169,0.7238,-9.7741,-0.151,0.7094,-9.7798,0,0,0,0.0021,-0.0032,5.00E-04,69009,2021-05-19 13:02:25:626
-0.1169,0.7238,-9.7741,-0.151,0.7094,-9.7798,0,0,0,0.0021,-0.0032,5.00E-04,69010,2021-05-19 13:02:25:627
-0.1169,0.7238,-9.7741,-0.151,0.7094,-9.7798,0,0,0,0.0021,-0.0032,5.00E-04,69010,2021-05-19 13:02:25:627
-0.1169,0.7238,-9.7741,-0.151,0.7094,-9.7798,0,0,0,0.0021,-0.0032,5.00E-04,69010,2021-05-19 13:02:25:627
-0.1169,0.7238,-9.7741,-0.151,0.7094,-9.7798,0,0,0,0.0021,-0.0032,5.00E-04,69010,2021-05-19 13:02:25:627
-0.1169,0.7238,-9.7741,-0.151,0.7094,-9.7798,0,0,0,0.0021,-0.0032,5.00E-04,69010,2021-05-19 13:02:25:627
-0.1169,0.7238,-9.7741,-0.151,0.7094,-9.7798,0,0,0,0.0021,-0.0032,5.00E-04,69010,2021-05-19 13:02:25:627
-0.1169,0.7238,-9.7741,-0.151,0.7094,-9.7798,0,0,0,0.0021,-0.0032,5.00E-04,69011,2021-05-19 13:02:25:628
-0.1169,0.7238,-9.7741,-0.151,0.7094,-9.7798,0,0,0,0.0021,-0.0032,5.00E-04,69024,2021-05-19 13:02:25:641
-0.1169,0.7238,-9.7741,-0.151,0.7094,-9.7798,0,0,0,0.0021,-0.0032,5.00E-04,69024,2021-05-19 13:02:25:641
-0.1169,0.7238,-9.7741,-0.151,0.7094,-9.7798,0,0,0,0.0021,-0.0032,5.00E-04,69025,2021-05-19 13:02:25:642
-0.1169,0.7238,-9.7741,-0.151,0.7094,-9.7798,0,0,0,0.0021,-0.0032,5.00E-04,69025,2021-05-19 13:02:25:642
-0.1169,0.7238,-9.7741,-0.151,0.7094,-9.7798,0,0,0,0.0021,-0.0032,5.00E-04,69025,2021-05-19 13:02:25:642
-0.1169,0.7238,-9.7741,-0.151,0.7094,-9.7798,0,0,0,0.0021,-0.0032,5.00E-04,69026,2021-05-19 13:02:25:643
-0.1169,0.7238,-9.7741,-0.151,0.7094,-9.7798,0,0,0,0.0021,-0.0032,5.00E-04,69026,2021-05-19 13:02:25:643
-0.108,0.7349,-9.7714,-0.1311,0.7274,-9.7788,0.0854,0.0139,0.0077,-0.0086,0.0061,-0.0053,69469,2021-05-19 13:02:26:086
-0.1729,0.7196,-9.8013,-0.1547,0.7288,-9.7783,-0.0146,-0.0077,-0.0142,0.0017,5.00E-04,-0.0014,69969,2021-05-19 13:02:26:586
-0.1364,0.7355,-9.8103,-0.1525,0.7303,-9.7782,-0.0086,0.0098,-0.0119,6.00E-04,-0.0012,-0.0011,70470,2021-05-19 13:02:27:087
-0.1687,0.6885,-9.8372,-0.1472,0.7254,-9.7787,-0.0202,-0.0309,-0.0184,0.0021,-0.0011,-0.0014,70969,2021-05-19 13:02:27:586
-0.1666,0.6951,-9.8327,-0.1488,0.7177,-9.7792,-0.0329,-0.0152,-0.0036,0.0063,-0.0034,0.0069,71470,2021-05-19 13:02:28:087
-0.1406,0.7107,-9.8049,-0.1385,0.7132,-9.7797,-0.0041,-0.0146,1.00E-04,-0.0014,-2.00E-04,-0.0014,71970,2021-05-19 13:02:28:587
-0.14,0.7256,-9.7938,-0.1364,0.7016,-9.7806,-0.0048,0.0101,8.00E-04,-0.0015,0.0012,-2.00E-04,72470,2021-05-19 13:02:29:087
-0.1555,0.7436,-9.7765,-0.1429,0.7188,-9.7792,-0.02,0.0235,0.0152,0.0057,-0.0066,0.0031,72970,2021-05-19 13:02:29:587
-0.1424,0.7029,-9.8022,-0.1448,0.7015,-9.7805,-0.077,-0.0341,-0.0322,5.00E-04,0.0064,0.0137,73471,2021-05-19 13:02:30:088
-0.137,0.7062,-9.8085,-0.1432,0.6986,-9.7807,-0.0035,0.0147,0.0102,-0.0063,-0.0026,0.0023,73970,2021-05-19 13:02:30:587
-0.1415,0.6769,-9.8279,-0.1356,0.6905,-9.7814,-6.00E-04,-0.0446,-0.0258,0.0067,0.0017,-0.0014,74470,2021-05-19 13:02:31:087
-0.1325,0.7119,-9.7929,-0.1291,0.6925,-9.7813,-0.0096,0.015,0.0168,-8.00E-04,0.0058,2.00E-04,74970,2021-05-19 13:02:31:587
-0.1463,0.6628,-9.8192,-0.1211,0.6594,-9.7837,0,0,0,-0.0011,-0.0044,-0.0017,75470,2021-05-19 13:02:32:087
-0.1463,0.6628,-9.8192,-0.1211,0.6594,-9.7837,0,0,0,-0.0011,-0.0044,-0.0017,75473,2021-05-19 13:02:32:090
-0.1463,0.6628,-9.8192,-0.1634,0.735,-9.7777,0.0065,0.0106,0.0092,-0.0011,-0.0044,-0.0017,75906,2021-05-19 13:02:32:523
-0.1463,0.6628,-9.8192,-0.1634,0.735,-9.7777,0.0065,0.0106,0.0092,-0.0011,-0.0044,-0.0017,75907,2021-05-19 13:02:32:524
-0.1463,0.6628,-9.8192,-0.1634,0.735,-9.7777,0.0065,0.0106,0.0092,-0.0011,-0.0044,-0.0017,75907,2021-05-19 13:02:32:524
-0.1463,0.6628,-9.8192,-0.1634,0.735,-9.7777,0.0065,0.0106,0.0092,-0.0011,-0.0044,-0.0017,75907,2021-05-19 13:02:32:524
-0.1463,0.6628,-9.8192,-0.1634,0.735,-9.7777,0.0065,0.0106,0.0092,-0.0011,-0.0044,-0.0017,75907,2021-05-19 13:02:32:524
-0.1083,0.7301,-9.7678,-0.1117,0.7193,-9.7796,0.0044,0.0035,0.002,-0.0041,-6.00E-04,0.0024,76325,2021-05-19 13:02:32:942
-0.1083,0.7301,-9.7678,-0.1117,0.7193,-9.7796,0.0044,0.0035,0.002,-0.0041,-6.00E-04,0.0024,76326,2021-05-19 13:02:32:943
-0.1723,0.7475,-9.7603,-0.1098,0.7436,-9.7778,0,0,0,5.00E-04,9.00E-04,-0.0011,76737,2021-05-19 13:02:33:354
-0.1723,0.7475,-9.7603,-0.1098,0.7436,-9.7778,0,0,0,5.00E-04,9.00E-04,-0.0011,76738,2021-05-19 13:02:33:355
-0.1723,0.7475,-9.7603,-0.1098,0.7436,-9.7778,0,0,0,5.00E-04,9.00E-04,-0.0011,76739,2021-05-19 13:02:33:356
-0.1723,0.7475,-9.7603,-0.1098,0.7436,-9.7778,0,0,0,5.00E-04,9.00E-04,-0.0011,76739,2021-05-19 13:02:33:356
-0.1158,0.7047,-9.7753,-0.1172,0.714,-9.7799,-0.0269,0.0188,0.0076,0.0046,-5.00E-04,0.0066,77141,2021-05-19 13:02:33:758
-0.1158,0.7047,-9.7753,-0.1172,0.714,-9.7799,-0.0269,0.0188,0.0076,0.0046,-5.00E-04,0.0066,77141,2021-05-19 13:02:33:758
-0.1158,0.7047,-9.7753,-0.1172,0.714,-9.7799,-0.0269,0.0188,0.0076,0.0046,-5.00E-04,0.0066,77142,2021-05-19 13:02:33:759
-0.1158,0.7047,-9.7753,-0.1172,0.714,-9.7799,-0.0269,0.0188,0.0076,0.0046,-5.00E-04,0.0066,77142,2021-05-19 13:02:33:759
-0.1158,0.7047,-9.7753,-0.1172,0.714,-9.7799,-0.0269,0.0188,0.0076,0.0046,-5.00E-04,0.0066,77143,2021-05-19 13:02:33:760
-0.1158,0.7047,-9.7753,-0.1172,0.714,-9.7799,-0.0269,0.0188,0.0076,0.0046,-5.00E-04,0.0066,77143,2021-05-19 13:02:33:760
-0.1283,0.6942,-9.7834,-0.141,0.7116,-9.7798,0.0112,-0.0056,-0.0075,-2.00E-04,6.00E-04,-0.0023,77607,2021-05-19 13:02:34:224
-0.1283,0.6942,-9.7834,-0.141,0.7116,-9.7798,0.0112,-0.0056,-0.0075,-2.00E-04,6.00E-04,-0.0023,77608,2021-05-19 13:02:34:225
-0.1283,0.6942,-9.7834,-0.141,0.7116,-9.7798,0.0112,-0.0056,-0.0075,-2.00E-04,6.00E-04,-0.0023,77609,2021-05-19 13:02:34:226
-0.1283,0.6942,-9.7834,-0.141,0.7116,-9.7798,0.0112,-0.0056,-0.0075,-2.00E-04,6.00E-04,-0.0023,77609,2021-05-19 13:02:34:226
-0.1283,0.6942,-9.7834,-0.141,0.7116,-9.7798,0.0112,-0.0056,-0.0075,-2.00E-04,6.00E-04,-0.0023,77609,2021-05-19 13:02:34:226
-0.1307,0.6754,-9.7813,-0.1274,0.6929,-9.7813,2.00E-04,-0.0033,-0.0039,-0.004,0.0023,0.0095,77992,2021-05-19 13:02:34:609
-0.1307,0.6754,-9.7813,-0.1274,0.6929,-9.7813,2.00E-04,-0.0033,-0.0039,-0.004,0.0023,0.0095,77993,2021-05-19 13:02:34:610
-0.1307,0.6754,-9.7813,-0.1274,0.6929,-9.7813,2.00E-04,-0.0033,-0.0039,-0.004,0.0023,0.0095,77993,2021-05-19 13:02:34:610
-0.1307,0.6754,-9.7813,-0.1274,0.6929,-9.7813,2.00E-04,-0.0033,-0.0039,-0.004,0.0023,0.0095,77993,2021-05-19 13:02:34:610
-0.1307,0.6754,-9.7813,-0.1274,0.6929,-9.7813,2.00E-04,-0.0033,-0.0039,-0.004,0.0023,0.0095,77993,2021-05-19 13:02:34:610
-0.1307,0.6754,-9.7813,-0.1274,0.6929,-9.7813,2.00E-04,-0.0033,-0.0039,-0.004,0.0023,0.0095,77994,2021-05-19 13:02:34:611
-0.1307,0.6754,-9.7813,-0.1274,0.6929,-9.7813,2.00E-04,-0.0033,-0.0039,-0.004,0.0023,0.0095,77994,2021-05-19 13:02:34:611
-0.1307,0.6754,-9.7813,-0.1274,0.6929,-9.7813,2.00E-04,-0.0033,-0.0039,-0.004,0.0023,0.0095,77994,2021-05-19 13:02:34:611
-0.1307,0.6754,-9.7813,-0.1274,0.6929,-9.7813,2.00E-04,-0.0033,-0.0039,-0.004,0.0023,0.0095,77994,2021-05-19 13:02:34:611
-0.1307,0.6754,-9.7813,-0.1274,0.6929,-9.7813,2.00E-04,-0.0033,-0.0039,-0.004,0.0023,0.0095,77994,2021-05-19 13:02:34:611
-0.1307,0.6754,-9.7813,-0.1274,0.6929,-9.7813,2.00E-04,-0.0033,-0.0039,-0.004,0.0023,0.0095,77994,2021-05-19 13:02:34:611
-0.1155,0.6963,-9.775,-0.1212,0.6922,-9.7814,0.0084,0.0116,0.0032,-0.0035,8.00E-04,-8.00E-04,78407,2021-05-19 13:02:35:024
-0.1155,0.6963,-9.775,-0.1212,0.6922,-9.7814,0.0084,0.0116,0.0032,-0.0035,8.00E-04,-8.00E-04,78408,2021-05-19 13:02:35:025
-0.1155,0.6963,-9.775,-0.1212,0.6922,-9.7814,0.0084,0.0116,0.0032,-0.0035,8.00E-04,-8.00E-04,78409,2021-05-19 13:02:35:026
-0.1155,0.6963,-9.775,-0.1212,0.6922,-9.7814,0.0084,0.0116,0.0032,-0.0035,8.00E-04,-8.00E-04,78409,2021-05-19 13:02:35:026
-0.1155,0.6963,-9.775,-0.1212,0.6922,-9.7814,0.0084,0.0116,0.0032,-0.0035,8.00E-04,-8.00E-04,78409,2021-05-19 13:02:35:026
-0.1155,0.6963,-9.775,-0.1212,0.6922,-9.7814,0.0084,0.0116,0.0032,-0.0035,8.00E-04,-8.00E-04,78409,2021-05-19 13:02:35:026
-0.1155,0.6963,-9.775,-0.1212,0.6922,-9.7814,0.0084,0.0116,0.0032,-0.0035,8.00E-04,-8.00E-04,78410,2021-05-19 13:02:35:027
-0.1155,0.6963,-9.775,-0.1212,0.6922,-9.7814,0.0084,0.0116,0.0032,-0.0035,8.00E-04,-8.00E-04,78410,2021-05-19 13:02:35:027
-0.1155,0.6963,-9.775,-0.1212,0.6922,-9.7814,0.0084,0.0116,0.0032,-0.0035,8.00E-04,-8.00E-04,78410,2021-05-19 13:02:35:027
-0.1155,0.6963,-9.775,-0.1212,0.6922,-9.7814,0.0084,0.0116,0.0032,-0.0035,8.00E-04,-8.00E-04,78410,2021-05-19 13:02:35:027
-0.1155,0.6963,-9.775,-0.1212,0.6922,-9.7814,0.0084,0.0116,0.0032,-0.0035,8.00E-04,-8.00E-04,78410,2021-05-19 13:02:35:027
-0.1155,0.6963,-9.775,-0.1212,0.6922,-9.7814,0.0084,0.0116,0.0032,-0.0035,8.00E-04,-8.00E-04,78411,2021-05-19 13:02:35:028
-0.1155,0.6963,-9.775,-0.1212,0.6922,-9.7814,0.0084,0.0116,0.0032,-0.0035,8.00E-04,-8.00E-04,78411,2021-05-19 13:02:35:028
-0.1155,0.6963,-9.775,-0.1212,0.6922,-9.7814,0.0084,0.0116,0.0032,-0.0035,8.00E-04,-8.00E-04,78411,2021-05-19 13:02:35:028
-0.1155,0.6963,-9.775,-0.1212,0.6922,-9.7814,0.0084,0.0116,0.0032,-0.0035,8.00E-04,-8.00E-04,78411,2021-05-19 13:02:35:028
-0.1155,0.6963,-9.775,-0.1212,0.6922,-9.7814,0.0084,0.0116,0.0032,-0.0035,8.00E-04,-8.00E-04,78412,2021-05-19 13:02:35:029
-0.1271,0.6957,-9.7801,-0.1255,0.6736,-9.7827,-0.0055,0.006,0.0024,-0.0015,-3.00E-04,3.00E-04,78905,2021-05-19 13:02:35:522
-0.1271,0.6957,-9.7801,-0.1255,0.6736,-9.7827,-0.0055,0.006,0.0024,-0.0015,-3.00E-04,3.00E-04,78905,2021-05-19 13:02:35:522
-0.1125,0.6637,-9.7887,-0.1206,0.6863,-9.7819,0.0207,0.0202,0.0179,0.0018,0.0011,-0.0012,79135,2021-05-19 13:02:35:752
-0.1146,0.6673,-9.7935,-0.1205,0.6818,-9.7822,0.0095,-0.0187,-0.0102,-0.0014,6.00E-04,-0.0017,79636,2021-05-19 13:02:36:253
-0.1274,0.6278,-9.8124,-0.1231,0.6778,-9.7824,-0.0022,-0.0485,-0.0237,0.0049,-0.0018,0.0014,80135,2021-05-19 13:02:36:752
-0.1226,0.7098,-9.7651,-0.1241,0.7123,-9.78,0,0,0,0.0011,-3.00E-04,-0.0011,80635,2021-05-19 13:02:37:252
-0.1202,0.6873,-9.781,-0.1222,0.6756,-9.7826,7.00E-04,-0.0068,-0.005,8.00E-04,-0.0014,-0.0014,81291,2021-05-19 13:02:37:908
-0.1202,0.6873,-9.781,-0.1222,0.6756,-9.7826,7.00E-04,-0.0068,-0.005,8.00E-04,-0.0014,-0.0014,81292,2021-05-19 13:02:37:909
-0.1202,0.6873,-9.781,-0.1222,0.6756,-9.7826,7.00E-04,-0.0068,-0.005,8.00E-04,-0.0014,-0.0014,81292,2021-05-19 13:02:37:909
-0.1244,0.6691,-9.7953,-0.1206,0.66,-9.7837,0,0,0,-6.00E-04,-6.00E-04,-5.00E-04,81326,2021-05-19 13:02:37:943
-0.1947,0.6416,-9.8127,-0.2008,0.6415,-9.7836,0,0,0,-0.0032,0.0018,0.0027,81826,2021-05-19 13:02:38:443
-0.1947,0.6416,-9.8127,-0.2008,0.6415,-9.7836,0,0,0,-0.0032,0.0018,0.0027,82196,2021-05-19 13:02:38:813
-0.1947,0.6416,-9.8127,-0.2008,0.6415,-9.7836,0,0,0,-0.0032,0.0018,0.0027,82197,2021-05-19 13:02:38:814
-0.1947,0.6416,-9.8127,-0.2008,0.6415,-9.7836,0,0,0,-0.0032,0.0018,0.0027,82197,2021-05-19 13:02:38:814
-0.1947,0.6416,-9.8127,-0.2008,0.6415,-9.7836,0,0,0,-0.0032,0.0018,0.0027,82197,2021-05-19 13:02:38:814
-0.1947,0.6416,-9.8127,-0.2008,0.6415,-9.7836,0,0,0,-0.0032,0.0018,0.0027,82197,2021-05-19 13:02:38:814
-0.1947,0.6416,-9.8127,-0.2008,0.6415,-9.7836,0,0,0,-0.0032,0.0018,0.0027,82197,2021-05-19 13:02:38:814
-0.1947,0.6416,-9.8127,-0.2008,0.6415,-9.7836,0,0,0,-0.0032,0.0018,0.0027,82198,2021-05-19 13:02:38:815
-0.2252,0.6709,-9.7935,-0.1871,0.7026,-9.7797,-0.0327,-0.0149,-0.0139,-0.0018,6.00E-04,-9.00E-04,82613,2021-05-19 13:02:39:230
-0.2252,0.6709,-9.7935,-0.1871,0.7026,-9.7797,-0.0327,-0.0149,-0.0139,-0.0018,6.00E-04,-9.00E-04,82614,2021-05-19 13:02:39:231
-0.2252,0.6709,-9.7935,-0.1871,0.7026,-9.7797,-0.0327,-0.0149,-0.0139,-0.0018,6.00E-04,-9.00E-04,82614,2021-05-19 13:02:39:231
-0.2252,0.6709,-9.7935,-0.1871,0.7026,-9.7797,-0.0327,-0.0149,-0.0139,-0.0018,6.00E-04,-9.00E-04,82614,2021-05-19 13:02:39:231
-0.2252,0.6709,-9.7935,-0.1871,0.7026,-9.7797,-0.0327,-0.0149,-0.0139,-0.0018,6.00E-04,-9.00E-04,82615,2021-05-19 13:02:39:232
-0.2252,0.6709,-9.7935,-0.1871,0.7026,-9.7797,-0.0327,-0.0149,-0.0139,-0.0018,6.00E-04,-9.00E-04,82615,2021-05-19 13:02:39:232
-0.2252,0.6709,-9.7935,-0.1871,0.7026,-9.7797,-0.0327,-0.0149,-0.0139,-0.0018,6.00E-04,-9.00E-04,82615,2021-05-19 13:02:39:232
-0.2252,0.6709,-9.7935,-0.1871,0.7026,-9.7797,-0.0327,-0.0149,-0.0139,-0.0018,6.00E-04,-9.00E-04,82615,2021-05-19 13:02:39:232
-0.2252,0.6709,-9.7935,-0.1871,0.7026,-9.7797,-0.0327,-0.0149,-0.0139,-0.0018,6.00E-04,-9.00E-04,82616,2021-05-19 13:02:39:233
-0.2252,0.6709,-9.7935,-0.1871,0.7026,-9.7797,-0.0327,-0.0149,-0.0139,-0.0018,6.00E-04,-9.00E-04,82616,2021-05-19 13:02:39:233
-0.2252,0.6709,-9.7935,-0.1871,0.7026,-9.7797,-0.0327,-0.0149,-0.0139,-0.0018,6.00E-04,-9.00E-04,82616,2021-05-19 13:02:39:233
-0.2252,0.6709,-9.7935,-0.1871,0.7026,-9.7797,-0.0327,-0.0149,-0.0139,-0.0018,6.00E-04,-9.00E-04,82616,2021-05-19 13:02:39:233
-0.2189,0.6601,-9.7947,-0.2321,0.6585,-9.7818,0,0,0,-0.0015,-3.00E-04,0.0014,82629,2021-05-19 13:02:39:246
-0.2189,0.6601,-9.7947,-0.2321,0.6585,-9.7818,0,0,0,-0.0015,-3.00E-04,0.0014,82629,2021-05-19 13:02:39:246
-0.1256,0.6855,-9.7804,-0.1304,0.6806,-9.7821,0,0,0,0,-6.00E-04,-0.0026,83102,2021-05-19 13:02:39:719
-0.1256,0.6855,-9.7804,-0.1304,0.6806,-9.7821,0,0,0,0,-6.00E-04,-0.0026,83106,2021-05-19 13:02:39:723
-0.1256,0.6855,-9.7804,-0.1304,0.6806,-9.7821,0,0,0,0,-6.00E-04,-0.0026,83106,2021-05-19 13:02:39:723
-0.1256,0.6855,-9.7804,-0.1304,0.6806,-9.7821,0,0,0,0,-6.00E-04,-0.0026,83107,2021-05-19 13:02:39:724
-0.1256,0.6855,-9.7804,-0.1304,0.6806,-9.7821,0,0,0,0,-6.00E-04,-0.0026,83107,2021-05-19 13:02:39:724
-0.1256,0.6855,-9.7804,-0.1304,0.6806,-9.7821,0,0,0,0,-6.00E-04,-0.0026,83110,2021-05-19 13:02:39:727
-0.1256,0.6855,-9.7804,-0.1304,0.6806,-9.7821,0,0,0,0,-6.00E-04,-0.0026,83110,2021-05-19 13:02:39:727
-0.1256,0.6855,-9.7804,-0.1304,0.6806,-9.7821,0,0,0,0,-6.00E-04,-0.0026,83110,2021-05-19 13:02:39:727
-0.1256,0.6855,-9.7804,-0.1304,0.6806,-9.7821,0,0,0,0,-6.00E-04,-0.0026,83111,2021-05-19 13:02:39:728
-0.1256,0.6855,-9.7804,-0.1304,0.6806,-9.7821,0,0,0,0,-6.00E-04,-0.0026,83111,2021-05-19 13:02:39:728
-0.1256,0.6855,-9.7804,-0.1304,0.6806,-9.7821,0,0,0,0,-6.00E-04,-0.0026,83111,2021-05-19 13:02:39:728
-0.1256,0.6855,-9.7804,-0.1304,0.6806,-9.7821,0,0,0,0,-6.00E-04,-0.0026,83111,2021-05-19 13:02:39:728
-0.1256,0.6855,-9.7804,-0.1304,0.6806,-9.7821,0,0,0,0,-6.00E-04,-0.0026,83112,2021-05-19 13:02:39:729
-0.1256,0.6855,-9.7804,-0.1304,0.6806,-9.7821,0,0,0,0,-6.00E-04,-0.0026,83113,2021-05-19 13:02:39:730
-0.1256,0.6855,-9.7804,-0.1304,0.6806,-9.7821,0,0,0,0,-6.00E-04,-0.0026,83113,2021-05-19 13:02:39:730
-0.1256,0.6855,-9.7804,-0.1304,0.6806,-9.7821,0,0,0,0,-6.00E-04,-0.0026,83114,2021-05-19 13:02:39:731
-0.125,0.67,-9.7872,-0.1304,0.6806,-9.7821,0,0,0,0,-6.00E-04,-0.0026,83114,2021-05-19 13:02:39:731
-0.125,0.67,-9.7872,-0.117,0.6727,-9.7829,0,0,0,0,-6.00E-04,-0.0026,83114,2021-05-19 13:02:39:731
-0.125,0.67,-9.7872,-0.117,0.6727,-9.7829,0,0,0,0,-6.00E-04,-0.0026,83115,2021-05-19 13:02:39:732
-0.125,0.67,-9.7872,-0.117,0.6727,-9.7829,0,0,0,0,-6.00E-04,-0.0026,83115,2021-05-19 13:02:39:732
-0.125,0.67,-9.7872,-0.117,0.6727,-9.7829,0,0,0,0,-6.00E-04,-0.0026,83115,2021-05-19 13:02:39:732
-0.125,0.67,-9.7872,-0.117,0.6727,-9.7829,0,0,0,0,-6.00E-04,-0.0026,83115,2021-05-19 13:02:39:732
-0.125,0.67,-9.7872,-0.117,0.6727,-9.7829,0,0,0,0,-6.00E-04,-0.0026,83116,2021-05-19 13:02:39:733
-0.125,0.67,-9.7872,-0.117,0.6727,-9.7829,0,0,0,0,-6.00E-04,-0.0026,83116,2021-05-19 13:02:39:733
-0.125,0.67,-9.7872,-0.117,0.6727,-9.7829,0,0,0,0,-6.00E-04,-0.0026,83116,2021-05-19 13:02:39:733
-0.125,0.67,-9.7872,-0.117,0.6727,-9.7829,0,0,0,0,-6.00E-04,-0.0026,83116,2021-05-19 13:02:39:733
-0.125,0.67,-9.7872,-0.117,0.6727,-9.7829,0,0,0,0,-6.00E-04,-0.0026,83117,2021-05-19 13:02:39:734
-0.125,0.67,-9.7872,-0.117,0.6727,-9.7829,0,0,0,0,-6.00E-04,-0.0026,83117,2021-05-19 13:02:39:734
-0.125,0.67,-9.7872,-0.117,0.6727,-9.7829,0,0,0,0,-6.00E-04,-0.0026,83117,2021-05-19 13:02:39:734
-0.125,0.67,-9.7872,-0.117,0.6727,-9.7829,0,0,0,0,-6.00E-04,-0.0026,83117,2021-05-19 13:02:39:734
-0.125,0.67,-9.7872,-0.117,0.6727,-9.7829,0,0,0,0,-6.00E-04,-0.0026,83118,2021-05-19 13:02:39:735
-0.125,0.67,-9.7872,-0.117,0.6727,-9.7829,0,0,0,0,-6.00E-04,-0.0026,83118,2021-05-19 13:02:39:735
-0.1376,0.6628,-9.7917,-0.1335,0.6674,-9.783,0,0,0,5.00E-04,6.00E-04,2.00E-04,83512,2021-05-19 13:02:40:129
-0.1376,0.6628,-9.7917,-0.1335,0.6674,-9.783,0,0,0,5.00E-04,6.00E-04,2.00E-04,83514,2021-05-19 13:02:40:131
-0.1376,0.6628,-9.7917,-0.1299,0.6602,-9.7835,0.0101,-0.0041,-0.0012,5.00E-04,6.00E-04,2.00E-04,83851,2021-05-19 13:02:40:468
-0.1376,0.6628,-9.7917,-0.1299,0.6602,-9.7835,0.0101,-0.0041,-0.0012,5.00E-04,6.00E-04,2.00E-04,83852,2021-05-19 13:02:40:469
-0.1065,0.6754,-9.784,-0.1088,0.6729,-9.7829,0,0,0,-0.0017,0.0021,-0.0015,83896,2021-05-19 13:02:40:513
-0.1334,0.6628,-9.7926,-0.1294,0.6621,-9.7834,0,0,0,-0.0017,9.00E-04,-3.00E-04,84396,2021-05-19 13:02:41:013
-0.1247,0.67,-9.7944,-0.1381,0.6582,-9.7836,0,0,0,-8.00E-04,-0.0014,0.0018,84896,2021-05-19 13:02:41:513
-0.1247,0.67,-9.7944,-0.1381,0.6582,-9.7836,0,0,0,-8.00E-04,-0.0014,0.0018,84898,2021-05-19 13:02:41:515
-0.1247,0.67,-9.7944,-0.1289,0.6689,-9.783,0.005,0.0092,0.007,0.0014,8.00E-04,9.00E-04,85281,2021-05-19 13:02:41:898
-0.1247,0.67,-9.7944,-0.1289,0.6689,-9.783,0.005,0.0092,0.007,0.0014,8.00E-04,9.00E-04,85282,2021-05-19 13:02:41:899
-0.1247,0.67,-9.7944,-0.1289,0.6689,-9.783,0.005,0.0092,0.007,0.0014,8.00E-04,9.00E-04,85282,2021-05-19 13:02:41:899
-0.1247,0.67,-9.7944,-0.1289,0.6689,-9.783,0.005,0.0092,0.007,0.0014,8.00E-04,9.00E-04,85282,2021-05-19 13:02:41:899
-0.1247,0.67,-9.7944,-0.1289,0.6689,-9.783,0.005,0.0092,0.007,0.0014,8.00E-04,9.00E-04,85282,2021-05-19 13:02:41:899
-0.1247,0.67,-9.7944,-0.1289,0.6689,-9.783,0.005,0.0092,0.007,0.0014,8.00E-04,9.00E-04,85283,2021-05-19 13:02:41:900
-0.1478,0.6688,-9.7992,-0.136,0.7142,-9.7797,-0.0056,-0.0166,-0.0112,-2.00E-04,-0.0014,-0.0034,85717,2021-05-19 13:02:42:334
-0.1478,0.6688,-9.7992,-0.136,0.7142,-9.7797,-0.0056,-0.0166,-0.0112,-2.00E-04,-0.0014,-0.0034,85718,2021-05-19 13:02:42:335
-0.1478,0.6688,-9.7992,-0.136,0.7142,-9.7797,-0.0056,-0.0166,-0.0112,-2.00E-04,-0.0014,-0.0034,85718,2021-05-19 13:02:42:335
-0.1478,0.6688,-9.7992,-0.136,0.7142,-9.7797,-0.0056,-0.0166,-0.0112,-2.00E-04,-0.0014,-0.0034,85718,2021-05-19 13:02:42:335
-0.1478,0.6688,-9.7992,-0.136,0.7142,-9.7797,-0.0056,-0.0166,-0.0112,-2.00E-04,-0.0014,-0.0034,85718,2021-05-19 13:02:42:335
-0.1478,0.6688,-9.7992,-0.136,0.7142,-9.7797,-0.0056,-0.0166,-0.0112,-2.00E-04,-0.0014,-0.0034,85719,2021-05-19 13:02:42:336
-0.1478,0.6688,-9.7992,-0.136,0.7142,-9.7797,-0.0056,-0.0166,-0.0112,-2.00E-04,-0.0014,-0.0034,85719,2021-05-19 13:02:42:336
-0.1478,0.6688,-9.7992,-0.136,0.7142,-9.7797,-0.0056,-0.0166,-0.0112,-2.00E-04,-0.0014,-0.0034,85719,2021-05-19 13:02:42:336
-0.1478,0.6688,-9.7992,-0.136,0.7142,-9.7797,-0.0056,-0.0166,-0.0112,-2.00E-04,-0.0014,-0.0034,85719,2021-05-19 13:02:42:336
-0.1478,0.6688,-9.7992,-0.136,0.7142,-9.7797,-0.0056,-0.0166,-0.0112,-2.00E-04,-0.0014,-0.0034,85719,2021-05-19 13:02:42:336
-0.1478,0.6688,-9.7992,-0.136,0.7142,-9.7797,-0.0056,-0.0166,-0.0112,-2.00E-04,-0.0014,-0.0034,85719,2021-05-19 13:02:42:336
-0.1478,0.6688,-9.7992,-0.136,0.7142,-9.7797,-0.0056,-0.0166,-0.0112,-2.00E-04,-0.0014,-0.0034,85719,2021-05-19 13:02:42:336
-0.1478,0.6688,-9.7992,-0.136,0.7142,-9.7797,-0.0056,-0.0166,-0.0112,-2.00E-04,-0.0014,-0.0034,85719,2021-05-19 13:02:42:336
-0.1478,0.6688,-9.7992,-0.136,0.7142,-9.7797,-0.0056,-0.0166,-0.0112,-2.00E-04,-0.0014,-0.0034,85720,2021-05-19 13:02:42:337
-0.1478,0.6688,-9.7992,-0.136,0.7142,-9.7797,-0.0056,-0.0166,-0.0112,-2.00E-04,-0.0014,-0.0034,85720,2021-05-19 13:02:42:337
-0.1819,0.6631,-9.8183,-0.1744,0.6586,-9.783,0,0,0,-0.0073,0.0021,0.0254,86181,2021-05-19 13:02:42:798
-0.2375,0.6661,-9.8692,-0.2251,0.2964,-9.7996,0.0495,0.1463,-0.0365,-0.0777,-0.0354,0.2153,86681,2021-05-19 13:02:43:298
-0.1905,0.5791,-9.6688,0.1915,0.558,-9.7889,0,0,0,0.0391,-0.1287,0.3357,87181,2021-05-19 13:02:43:798
-0.1905,0.5791,-9.6688,0.1915,0.558,-9.7889,0,0,0,0.0391,-0.1287,0.3357,87182,2021-05-19 13:02:43:799
-0.1905,0.5791,-9.6688,0.1915,0.558,-9.7889,0,0,0,0.0391,-0.1287,0.3357,87182,2021-05-19 13:02:43:799
-0.204,1.0932,-9.7537,-0.1889,1.1308,-9.7394,0.0394,-0.0267,-0.0076,0.0124,-0.0064,0.0702,87528,2021-05-19 13:02:44:145
-0.2641,1.0609,-9.7534,-0.2405,1.0772,-9.7443,-0.039,-0.0168,-0.0057,0.0046,-6.00E-04,0.0078,88028,2021-05-19 13:02:44:645
-0.2734,1.0436,-9.7519,-0.2596,1.0548,-9.7463,-0.0127,-0.0112,-5.00E-04,0.0017,-3.00E-04,0.005,88528,2021-05-19 13:02:45:145
-0.2725,1.0358,-9.7552,-0.269,1.0411,-9.7475,-0.0088,-0.004,-3.00E-04,0.0014,-9.00E-04,0.0047,89029,2021-05-19 13:02:45:646
-0.2731,1.0274,-9.7555,-0.272,1.0313,-9.7485,-0.0011,-0.0021,0.0021,6.00E-04,-3.00E-04,0.0038,89533,2021-05-19 13:02:46:150
-0.2704,1.025,-9.7528,-0.2725,1.0275,-9.7489,0.0023,-0.0039,0.0045,2.00E-04,-2.00E-04,0.0023,90028,2021-05-19 13:02:46:645
-0.2707,1.0175,-9.7558,-0.2726,1.021,-9.7495,0.0013,-0.0042,-5.00E-04,2.00E-04,-3.00E-04,0.0026,90528,2021-05-19 13:02:47:145
0.8889,2.1583,-9.8501,0.525,1.5755,-9.665,0,0,0,-0.1185,0.0823,0.153,91028,2021-05-19 13:02:47:645
0.8889,2.1583,-9.8501,0.525,1.5755,-9.665,0,0,0,-0.1185,0.0823,0.153,91029,2021-05-19 13:02:47:646
0.8889,2.1583,-9.8501,0.525,1.5755,-9.665,0,0,0,-0.1185,0.0823,0.153,91029,2021-05-19 13:02:47:646
0.8889,2.1583,-9.8501,0.525,1.5755,-9.665,0,0,0,-0.1185,0.0823,0.153,91030,2021-05-19 13:02:47:647
1.0753,2.2603,-9.4349,1.039,2.1899,-9.5024,0.1531,0.0258,0.5003,-0.0136,0.0089,-0.0342,91190,2021-05-19 13:02:47:807
1.2392,2.3052,-9.5749,1.2127,2.326,-9.4493,0.0264,-0.039,-0.0335,-0.0493,0.0744,0.0118,91690,2021-05-19 13:02:48:307
1.075,2.2983,-9.524,1.318,2.3266,-9.435,-0.1684,-0.1274,-0.0074,0.0066,0.0296,-0.2611,92190,2021-05-19 13:02:48:807
1.0232,2.4021,-9.4525,1.0997,2.3857,-9.4482,-0.0736,0.0134,0.0138,0.0053,0.0092,-0.0625,92691,2021-05-19 13:02:49:308
1.0014,2.5274,-9.3975,1.0895,2.385,-9.4496,0.0156,-0.0809,0.0618,-0.014,0.0423,-0.0061,93191,2021-05-19 13:02:49:808
1.3376,2.5777,-9.4469,1.2313,2.4201,-9.4232,0.0544,0.1188,0.0637,0.0538,0.0547,-0.3074,93690,2021-05-19 13:02:50:307
0.7032,2.4176,-9.3751,1.0594,2.4408,-9.4388,-0.3436,0.0207,0.2006,-0.1283,0.0154,0.1324,94191,2021-05-19 13:02:50:808
1.2467,2.5567,-9.3876,1.267,2.5559,-9.3826,-0.0894,0.019,0.0072,0.0339,0.0785,-0.2509,94696,2021-05-19 13:02:51:313
1.4907,3.0604,-9.0215,1.4651,2.5523,-9.3546,0.025,0.5301,0.3599,0.1211,0.2285,-0.315,95191,2021-05-19 13:02:51:808
0.8414,1.5637,-9.7726,1.2668,2.6313,-9.3617,0.075,-0.4515,-0.0841,0.0084,-0.0397,-0.0429,95691,2021-05-19 13:02:52:308
1.008,2.5926,-9.3912,1.2115,2.5784,-9.3837,-0.2566,0.0119,0.0415,0.0061,0.0156,0.0539,96193,2021-05-19 13:02:52:810
1.0968,2.5289,-9.4439,1.2496,2.5614,-9.3834,0.0824,0.0179,0.0353,0.0034,-0.0053,0.1148,96690,2021-05-19 13:02:53:307
1.0968,2.5289,-9.4439,1.2496,2.5614,-9.3834,0.0824,0.0179,0.0353,0.0034,-0.0053,0.1148,96691,2021-05-19 13:02:53:308
1.0968,2.5289,-9.4439,1.2496,2.5614,-9.3834,0.0824,0.0179,0.0353,0.0034,-0.0053,0.1148,96691,2021-05-19 13:02:53:308
1.0968,2.5289,-9.4439,1.2496,2.5614,-9.3834,0.0824,0.0179,0.0353,0.0034,-0.0053,0.1148,96692,2021-05-19 13:02:53:309
1.0968,2.5289,-9.4439,1.2496,2.5614,-9.3834,0.0824,0.0179,0.0353,0.0034,-0.0053,0.1148,96692,2021-05-19 13:02:53:309
1.0968,2.5289,-9.4439,1.2496,2.5614,-9.3834,0.0824,0.0179,0.0353,0.0034,-0.0053,0.1148,96692,2021-05-19 13:02:53:309
1.0968,2.5289,-9.4439,1.2496,2.5614,-9.3834,0.0824,0.0179,0.0353,0.0034,-0.0053,0.1148,96692,2021-05-19 13:02:53:309
1.0968,2.5289,-9.4439,1.2496,2.5614,-9.3834,0.0824,0.0179,0.0353,0.0034,-0.0053,0.1148,96701,2021-05-19 13:02:53:318
1.0968,2.5289,-9.4439,1.2496,2.5614,-9.3834,0.0824,0.0179,0.0353,0.0034,-0.0053,0.1148,96702,2021-05-19 13:02:53:319
1.0546,2.5451,-9.3993,0.9616,2.4999,-9.4338,0,0,0,-0.0336,0.033,0.024,96727,2021-05-19 13:02:53:344
1.4973,2.6656,-9.3111,1.0128,1.6028,-9.6216,0.1245,0.0853,0.093,0.0444,0.0928,-0.4213,97227,2021-05-19 13:02:53:844
1.4973,2.6656,-9.3111,1.0128,1.6028,-9.6216,0.1245,0.0853,0.093,0.0444,0.0928,-0.4213,97228,2021-05-19 13:02:53:845
1.4973,2.6656,-9.3111,1.0128,1.6028,-9.6216,0.1245,0.0853,0.093,0.0444,0.0928,-0.4213,97228,2021-05-19 13:02:53:845
1.4973,2.6656,-9.3111,1.0128,1.6028,-9.6216,0.1245,0.0853,0.093,0.0444,0.0928,-0.4213,97228,2021-05-19 13:02:53:845
1.4973,2.6656,-9.3111,1.0128,1.6028,-9.6216,0.1245,0.0853,0.093,0.0444,0.0928,-0.4213,97229,2021-05-19 13:02:53:846
1.4973,2.6656,-9.3111,1.0128,1.6028,-9.6216,0.1245,0.0853,0.093,0.0444,0.0928,-0.4213,97229,2021-05-19 13:02:53:846
1.4973,2.6656,-9.3111,1.0128,1.6028,-9.6216,0.1245,0.0853,0.093,0.0444,0.0928,-0.4213,97229,2021-05-19 13:02:53:846
1.4973,2.6656,-9.3111,1.0128,1.6028,-9.6216,0.1245,0.0853,0.093,0.0444,0.0928,-0.4213,97229,2021-05-19 13:02:53:846
1.4973,2.6656,-9.3111,1.0128,1.6028,-9.6216,0.1245,0.0853,0.093,0.0444,0.0928,-0.4213,97229,2021-05-19 13:02:53:846
1.4973,2.6656,-9.3111,1.0128,1.6028,-9.6216,0.1245,0.0853,0.093,0.0444,0.0928,-0.4213,97230,2021-05-19 13:02:53:847
1.4973,2.6656,-9.3111,1.0128,1.6028,-9.6216,0.1245,0.0853,0.093,0.0444,0.0928,-0.4213,97230,2021-05-19 13:02:53:847
1.4973,2.6656,-9.3111,1.0128,1.6028,-9.6216,0.1245,0.0853,0.093,0.0444,0.0928,-0.4213,97230,2021-05-19 13:02:53:847
1.4973,2.6656,-9.3111,1.0128,1.6028,-9.6216,0.1245,0.0853,0.093,0.0444,0.0928,-0.4213,97230,2021-05-19 13:02:53:847
1.4973,2.6656,-9.3111,1.0128,1.6028,-9.6216,0.1245,0.0853,0.093,0.0444,0.0928,-0.4213,97230,2021-05-19 13:02:53:847
1.4973,2.6656,-9.3111,1.0128,1.6028,-9.6216,0.1245,0.0853,0.093,0.0444,0.0928,-0.4213,97231,2021-05-19 13:02:53:848
1.4973,2.6656,-9.3111,1.0128,1.6028,-9.6216,0.1245,0.0853,0.093,0.0444,0.0928,-0.4213,97231,2021-05-19 13:02:53:848
1.4973,2.6656,-9.3111,1.0128,1.6028,-9.6216,0.1245,0.0853,0.093,0.0444,0.0928,-0.4213,97231,2021-05-19 13:02:53:848
1.4973,2.6656,-9.3111,1.0128,1.6028,-9.6216,0.1245,0.0853,0.093,0.0444,0.0928,-0.4213,97231,2021-05-19 13:02:53:848
1.4973,2.6656,-9.3111,1.0128,1.6028,-9.6216,0.1245,0.0853,0.093,0.0444,0.0928,-0.4213,97231,2021-05-19 13:02:53:848
1.4973,2.6656,-9.3111,1.0128,1.6028,-9.6216,0.1245,0.0853,0.093,0.0444,0.0928,-0.4213,97231,2021-05-19 13:02:53:848
1.4973,2.6656,-9.3111,1.0128,1.6028,-9.6216,0.1245,0.0853,0.093,0.0444,0.0928,-0.4213,97232,2021-05-19 13:02:53:849
1.4973,2.6656,-9.3111,1.0128,1.6028,-9.6216,0.1245,0.0853,0.093,0.0444,0.0928,-0.4213,97232,2021-05-19 13:02:53:849
1.4973,2.6656,-9.3111,1.0128,1.6028,-9.6216,0.1245,0.0853,0.093,0.0444,0.0928,-0.4213,97232,2021-05-19 13:02:53:849
1.4973,2.6656,-9.3111,1.0128,1.6028,-9.6216,0.1245,0.0853,0.093,0.0444,0.0928,-0.4213,97232,2021-05-19 13:02:53:849
1.4973,2.6656,-9.3111,1.0128,1.6028,-9.6216,0.1245,0.0853,0.093,0.0444,0.0928,-0.4213,97232,2021-05-19 13:02:53:849
1.4973,2.6656,-9.3111,1.0128,1.6028,-9.6216,0.1245,0.0853,0.093,0.0444,0.0928,-0.4213,97233,2021-05-19 13:02:53:850
1.4973,2.6656,-9.3111,1.0128,1.6028,-9.6216,0.1245,0.0853,0.093,0.0444,0.0928,-0.4213,97233,2021-05-19 13:02:53:850
1.4973,2.6656,-9.3111,1.0128,1.6028,-9.6216,0.1245,0.0853,0.093,0.0444,0.0928,-0.4213,97233,2021-05-19 13:02:53:850
1.4973,2.6656,-9.3111,1.0128,1.6028,-9.6216,0.1245,0.0853,0.093,0.0444,0.0928,-0.4213,97233,2021-05-19 13:02:53:850
1.4973,2.6656,-9.3111,1.0128,1.6028,-9.6216,0.1245,0.0853,0.093,0.0444,0.0928,-0.4213,97233,2021-05-19 13:02:53:850
1.4973,2.6656,-9.3111,1.0128,1.6028,-9.6216,0.1245,0.0853,0.093,0.0444,0.0928,-0.4213,97233,2021-05-19 13:02:53:850
1.4973,2.6656,-9.3111,1.0128,1.6028,-9.6216,0.1245,0.0853,0.093,0.0444,0.0928,-0.4213,97234,2021-05-19 13:02:53:851
1.4973,2.6656,-9.3111,1.0128,1.6028,-9.6216,0.1245,0.0853,0.093,0.0444,0.0928,-0.4213,97234,2021-05-19 13:02:53:851
1.4973,2.6656,-9.3111,1.0128,1.6028,-9.6216,0.1245,0.0853,0.093,0.0444,0.0928,-0.4213,97234,2021-05-19 13:02:53:851
1.4973,2.6656,-9.3111,1.0128,1.6028,-9.6216,0.1245,0.0853,0.093,0.0444,0.0928,-0.4213,97234,2021-05-19 13:02:53:851
1.4973,2.6656,-9.3111,1.0128,1.6028,-9.6216,0.1245,0.0853,0.093,0.0444,0.0928,-0.4213,97234,2021-05-19 13:02:53:851
1.4973,2.6656,-9.3111,1.0128,1.6028,-9.6216,0.1245,0.0853,0.093,0.0444,0.0928,-0.4213,97235,2021-05-19 13:02:53:852
1.4973,2.6656,-9.3111,1.0128,1.6028,-9.6216,0.1245,0.0853,0.093,0.0444,0.0928,-0.4213,97235,2021-05-19 13:02:53:852
1.4973,2.6656,-9.3111,1.0128,1.6028,-9.6216,0.1245,0.0853,0.093,0.0444,0.0928,-0.4213,97235,2021-05-19 13:02:53:852
1.4973,2.6656,-9.3111,1.0128,1.6028,-9.6216,0.1245,0.0853,0.093,0.0444,0.0928,-0.4213,97235,2021-05-19 13:02:53:852
1.4973,2.6656,-9.3111,1.0128,1.6028,-9.6216,0.1245,0.0853,0.093,0.0444,0.0928,-0.4213,97235,2021-05-19 13:02:53:852
1.4973,2.6656,-9.3111,1.0128,1.6028,-9.6216,0.1245,0.0853,0.093,0.0444,0.0928,-0.4213,97236,2021-05-19 13:02:53:853
1.4973,2.6656,-9.3111,1.0128,1.6028,-9.6216,0.1245,0.0853,0.093,0.0444,0.0928,-0.4213,97236,2021-05-19 13:02:53:853
1.4973,2.6656,-9.3111,1.0128,1.6028,-9.6216,0.1245,0.0853,0.093,0.0444,0.0928,-0.4213,97236,2021-05-19 13:02:53:853
1.4973,2.6656,-9.3111,1.0128,1.6028,-9.6216,0.1245,0.0853,0.093,0.0444,0.0928,-0.4213,97236,2021-05-19 13:02:53:853
1.4973,2.6656,-9.3111,1.0128,1.6028,-9.6216,0.1245,0.0853,0.093,0.0444,0.0928,-0.4213,97236,2021-05-19 13:02:53:853
1.4973,2.6656,-9.3111,1.0128,1.6028,-9.6216,0.1245,0.0853,0.093,0.0444,0.0928,-0.4213,97236,2021-05-19 13:02:53:853
1.4973,2.6656,-9.3111,1.0128,1.6028,-9.6216,0.1245,0.0853,0.093,0.0444,0.0928,-0.4213,97237,2021-05-19 13:02:53:854
1.4973,2.6656,-9.3111,1.0128,1.6028,-9.6216,0.1245,0.0853,0.093,0.0444,0.0928,-0.4213,97237,2021-05-19 13:02:53:854
1.4973,2.6656,-9.3111,1.0128,1.6028,-9.6216,0.1245,0.0853,0.093,0.0444,0.0928,-0.4213,97237,2021-05-19 13:02:53:854
1.4973,2.6656,-9.3111,1.0128,1.6028,-9.6216,0.1245,0.0853,0.093,0.0444,0.0928,-0.4213,97237,2021-05-19 13:02:53:854
1.4973,2.6656,-9.3111,1.0128,1.6028,-9.6216,0.1245,0.0853,0.093,0.0444,0.0928,-0.4213,97237,2021-05-19 13:02:53:854
1.4973,2.6656,-9.3111,1.0128,1.6028,-9.6216,0.1245,0.0853,0.093,0.0444,0.0928,-0.4213,97238,2021-05-19 13:02:53:855
1.4973,2.6656,-9.3111,1.0128,1.6028,-9.6216,0.1245,0.0853,0.093,0.0444,0.0928,-0.4213,97238,2021-05-19 13:02:53:855
1.4973,2.6656,-9.3111,1.0128,1.6028,-9.6216,0.1245,0.0853,0.093,0.0444,0.0928,-0.4213,97238,2021-05-19 13:02:53:855
1.4973,2.6656,-9.3111,1.0128,1.6028,-9.6216,0.1245,0.0853,0.093,0.0444,0.0928,-0.4213,97238,2021-05-19 13:02:53:855
1.4973,2.6656,-9.3111,1.0128,1.6028,-9.6216,0.1245,0.0853,0.093,0.0444,0.0928,-0.4213,97238,2021-05-19 13:02:53:855
1.4973,2.6656,-9.3111,1.0128,1.6028,-9.6216,0.1245,0.0853,0.093,0.0444,0.0928,-0.4213,97239,2021-05-19 13:02:53:856
1.4973,2.6656,-9.3111,1.0128,1.6028,-9.6216,0.1245,0.0853,0.093,0.0444,0.0928,-0.4213,97239,2021-05-19 13:02:53:856
1.4973,2.6656,-9.3111,1.0128,1.6028,-9.6216,0.1245,0.0853,0.093,0.0444,0.0928,-0.4213,97239,2021-05-19 13:02:53:856
1.4973,2.6656,-9.3111,1.0128,1.6028,-9.6216,0.1245,0.0853,0.093,0.0444,0.0928,-0.4213,97239,2021-05-19 13:02:53:856
1.4973,2.6656,-9.3111,1.0128,1.6028,-9.6216,0.1245,0.0853,0.093,0.0444,0.0928,-0.4213,97239,2021-05-19 13:02:53:856
1.4973,2.6656,-9.3111,1.0128,1.6028,-9.6216,0.1245,0.0853,0.093,0.0444,0.0928,-0.4213,97240,2021-05-19 13:02:53:857
1.4973,2.6656,-9.3111,1.0128,1.6028,-9.6216,0.1245,0.0853,0.093,0.0444,0.0928,-0.4213,97240,2021-05-19 13:02:53:857
1.4973,2.6656,-9.3111,1.0128,1.6028,-9.6216,0.1245,0.0853,0.093,0.0444,0.0928,-0.4213,97240,2021-05-19 13:02:53:857
1.4973,2.6656,-9.3111,1.0128,1.6028,-9.6216,0.1245,0.0853,0.093,0.0444,0.0928,-0.4213,97240,2021-05-19 13:02:53:857
1.4973,2.6656,-9.3111,1.0128,1.6028,-9.6216,0.1245,0.0853,0.093,0.0444,0.0928,-0.4213,97240,2021-05-19 13:02:53:857
1.4973,2.6656,-9.3111,1.0128,1.6028,-9.6216,0.1245,0.0853,0.093,0.0444,0.0928,-0.4213,97240,2021-05-19 13:02:53:857
1.4973,2.6656,-9.3111,1.0128,1.6028,-9.6216,0.1245,0.0853,0.093,0.0444,0.0928,-0.4213,97241,2021-05-19 13:02:53:858
1.4973,2.6656,-9.3111,1.0128,1.6028,-9.6216,0.1245,0.0853,0.093,0.0444,0.0928,-0.4213,97241,2021-05-19 13:02:53:858
1.4973,2.6656,-9.3111,1.0128,1.6028,-9.6216,0.1245,0.0853,0.093,0.0444,0.0928,-0.4213,97241,2021-05-19 13:02:53:858
1.4973,2.6656,-9.3111,1.0128,1.6028,-9.6216,0.1245,0.0853,0.093,0.0444,0.0928,-0.4213,97241,2021-05-19 13:02:53:858
1.4973,2.6656,-9.3111,1.0128,1.6028,-9.6216,0.1245,0.0853,0.093,0.0444,0.0928,-0.4213,97241,2021-05-19 13:02:53:858
1.4973,2.6656,-9.3111,1.0128,1.6028,-9.6216,0.1245,0.0853,0.093,0.0444,0.0928,-0.4213,97241,2021-05-19 13:02:53:858
1.4973,2.6656,-9.3111,1.0128,1.6028,-9.6216,0.1245,0.0853,0.093,0.0444,0.0928,-0.4213,97242,2021-05-19 13:02:53:859
1.4973,2.6656,-9.3111,1.0128,1.6028,-9.6216,0.1245,0.0853,0.093,0.0444,0.0928,-0.4213,97242,2021-05-19 13:02:53:859
1.4973,2.6656,-9.3111,1.0128,1.6028,-9.6216,0.1245,0.0853,0.093,0.0444,0.0928,-0.4213,97242,2021-05-19 13:02:53:859
1.4973,2.6656,-9.3111,1.0128,1.6028,-9.6216,0.1245,0.0853,0.093,0.0444,0.0928,-0.4213,97242,2021-05-19 13:02:53:859
1.4973,2.6656,-9.3111,1.0128,1.6028,-9.6216,0.1245,0.0853,0.093,0.0444,0.0928,-0.4213,97242,2021-05-19 13:02:53:859
1.4973,2.6656,-9.3111,1.0128,1.6028,-9.6216,0.1245,0.0853,0.093,0.0444,0.0928,-0.4213,97242,2021-05-19 13:02:53:859
1.4973,2.6656,-9.3111,1.0128,1.6028,-9.6216,0.1245,0.0853,0.093,0.0444,0.0928,-0.4213,97243,2021-05-19 13:02:53:860
1.4973,2.6656,-9.3111,1.0128,1.6028,-9.6216,0.1245,0.0853,0.093,0.0444,0.0928,-0.4213,97243,2021-05-19 13:02:53:860
1.4973,2.6656,-9.3111,1.0128,1.6028,-9.6216,0.1245,0.0853,0.093,0.0444,0.0928,-0.4213,97243,2021-05-19 13:02:53:860
1.4973,2.6656,-9.3111,1.0128,1.6028,-9.6216,0.1245,0.0853,0.093,0.0444,0.0928,-0.4213,97243,2021-05-19 13:02:53:860
1.4973,2.6656,-9.3111,1.0128,1.6028,-9.6216,0.1245,0.0853,0.093,0.0444,0.0928,-0.4213,97243,2021-05-19 13:02:53:860
1.4973,2.6656,-9.3111,1.0128,1.6028,-9.6216,0.1245,0.0853,0.093,0.0444,0.0928,-0.4213,97244,2021-05-19 13:02:53:861
1.4973,2.6656,-9.3111,1.0128,1.6028,-9.6216,0.1245,0.0853,0.093,0.0444,0.0928,-0.4213,97244,2021-05-19 13:02:53:861
1.4973,2.6656,-9.3111,1.0128,1.6028,-9.6216,0.1245,0.0853,0.093,0.0444,0.0928,-0.4213,97244,2021-05-19 13:02:53:861
1.4973,2.6656,-9.3111,1.0128,1.6028,-9.6216,0.1245,0.0853,0.093,0.0444,0.0928,-0.4213,97244,2021-05-19 13:02:53:861
1.4973,2.6656,-9.3111,1.0128,1.6028,-9.6216,0.1245,0.0853,0.093,0.0444,0.0928,-0.4213,97244,2021-05-19 13:02:53:861
1.4973,2.6656,-9.3111,1.0128,1.6028,-9.6216,0.1245,0.0853,0.093,0.0444,0.0928,-0.4213,97244,2021-05-19 13:02:53:861
1.4973,2.6656,-9.3111,1.0128,1.6028,-9.6216,0.1245,0.0853,0.093,0.0444,0.0928,-0.4213,97245,2021-05-19 13:02:53:862
1.4973,2.6656,-9.3111,1.0128,1.6028,-9.6216,0.1245,0.0853,0.093,0.0444,0.0928,-0.4213,97245,2021-05-19 13:02:53:862
1.4973,2.6656,-9.3111,1.0128,1.6028,-9.6216,0.1245,0.0853,0.093,0.0444,0.0928,-0.4213,97245,2021-05-19 13:02:53:862
1.4973,2.6656,-9.3111,1.0128,1.6028,-9.6216,0.1245,0.0853,0.093,0.0444,0.0928,-0.4213,97245,2021-05-19 13:02:53:862
1.4973,2.6656,-9.3111,1.0128,1.6028,-9.6216,0.1245,0.0853,0.093,0.0444,0.0928,-0.4213,97245,2021-05-19 13:02:53:862
1.4973,2.6656,-9.3111,1.0128,1.6028,-9.6216,0.1245,0.0853,0.093,0.0444,0.0928,-0.4213,97245,2021-05-19 13:02:53:862
1.4973,2.6656,-9.3111,1.0128,1.6028,-9.6216,0.1245,0.0853,0.093,0.0444,0.0928,-0.4213,97246,2021-05-19 13:02:53:863
1.4973,2.6656,-9.3111,1.0128,1.6028,-9.6216,0.1245,0.0853,0.093,0.0444,0.0928,-0.4213,97246,2021-05-19 13:02:53:863
1.4973,2.6656,-9.3111,1.0128,1.6028,-9.6216,0.1245,0.0853,0.093,0.0444,0.0928,-0.4213,97246,2021-05-19 13:02:53:863
1.4973,2.6656,-9.3111,1.0128,1.6028,-9.6216,0.1245,0.0853,0.093,0.0444,0.0928,-0.4213,97250,2021-05-19 13:02:53:867
1.4973,2.6656,-9.3111,1.0128,1.6028,-9.6216,0.1245,0.0853,0.093,0.0444,0.0928,-0.4213,97251,2021-05-19 13:02:53:868
1.4973,2.6656,-9.3111,1.0128,1.6028,-9.6216,0.1245,0.0853,0.093,0.0444,0.0928,-0.4213,97251,2021-05-19 13:02:53:868
1.4973,2.6656,-9.3111,1.0128,1.6028,-9.6216,0.1245,0.0853,0.093,0.0444,0.0928,-0.4213,97251,2021-05-19 13:02:53:868
1.4973,2.6656,-9.3111,1.0128,1.6028,-9.6216,0.1245,0.0853,0.093,0.0444,0.0928,-0.4213,97251,2021-05-19 13:02:53:868
1.4973,2.6656,-9.3111,1.0128,1.6028,-9.6216,0.1245,0.0853,0.093,0.0444,0.0928,-0.4213,97251,2021-05-19 13:02:53:868
1.4973,2.6656,-9.3111,1.0128,1.6028,-9.6216,0.1245,0.0853,0.093,0.0444,0.0928,-0.4213,97252,2021-05-19 13:02:53:869
1.4973,2.6656,-9.3111,1.0128,1.6028,-9.6216,0.1245,0.0853,0.093,0.0444,0.0928,-0.4213,97252,2021-05-19 13:02:53:869
1.4973,2.6656,-9.3111,1.0128,1.6028,-9.6216,0.1245,0.0853,0.093,0.0444,0.0928,-0.4213,97252,2021-05-19 13:02:53:869
1.4973,2.6656,-9.3111,1.0128,1.6028,-9.6216,0.1245,0.0853,0.093,0.0444,0.0928,-0.4213,97252,2021-05-19 13:02:53:869
1.4973,2.6656,-9.3111,1.0128,1.6028,-9.6216,0.1245,0.0853,0.093,0.0444,0.0928,-0.4213,97252,2021-05-19 13:02:53:869
1.4973,2.6656,-9.3111,1.0128,1.6028,-9.6216,0.1245,0.0853,0.093,0.0444,0.0928,-0.4213,97252,2021-05-19 13:02:53:869
1.4973,2.6656,-9.3111,1.0128,1.6028,-9.6216,0.1245,0.0853,0.093,0.0444,0.0928,-0.4213,97252,2021-05-19 13:02:53:869
1.4973,2.6656,-9.3111,1.0128,1.6028,-9.6216,0.1245,0.0853,0.093,0.0444,0.0928,-0.4213,97253,2021-05-19 13:02:53:870
1.4973,2.6656,-9.3111,1.0128,1.6028,-9.6216,0.1245,0.0853,0.093,0.0444,0.0928,-0.4213,97253,2021-05-19 13:02:53:870
1.4973,2.6656,-9.3111,1.0128,1.6028,-9.6216,0.1245,0.0853,0.093,0.0444,0.0928,-0.4213,97253,2021-05-19 13:02:53:870
0.7074,2.4823,-9.4681,1.0128,1.6028,-9.6216,0.1245,0.0853,0.093,0.0021,-0.0066,-0.0108,97278,2021-05-19 13:02:53:895
0.6323,2.4523,-9.486,0.6621,2.4592,-9.4702,-0.0239,-0.0531,-0.0546,0.0082,-0.0108,0.0137,97779,2021-05-19 13:02:54:396
0.6562,2.452,-9.4851,0.6607,2.4624,-9.4694,-0.0129,-0.0013,0.0079,0.0023,9.00E-04,0.0012,98280,2021-05-19 13:02:54:897
0.6464,2.4861,-9.475,0.6587,2.4635,-9.4693,0.0097,-0.0301,-0.0274,0.0032,0.0452,-0.0559,98779,2021-05-19 13:02:55:396
0.6464,2.4861,-9.475,0.6587,2.4635,-9.4693,0.0097,-0.0301,-0.0274,0.0032,0.0452,-0.0559,98780,2021-05-19 13:02:55:397
0.6464,2.4861,-9.475,0.6587,2.4635,-9.4693,0.0097,-0.0301,-0.0274,0.0032,0.0452,-0.0559,98780,2021-05-19 13:02:55:397
0.6464,2.4861,-9.475,0.6587,2.4635,-9.4693,0.0097,-0.0301,-0.0274,0.0032,0.0452,-0.0559,98780,2021-05-19 13:02:55:397
0.6464,2.4861,-9.475,0.6587,2.4635,-9.4693,0.0097,-0.0301,-0.0274,0.0032,0.0452,-0.0559,98781,2021-05-19 13:02:55:398
0.6464,2.4861,-9.475,0.6587,2.4635,-9.4693,0.0097,-0.0301,-0.0274,0.0032,0.0452,-0.0559,98781,2021-05-19 13:02:55:398
0.6464,2.4861,-9.475,0.6587,2.4635,-9.4693,0.0097,-0.0301,-0.0274,0.0032,0.0452,-0.0559,98781,2021-05-19 13:02:55:398
0.6464,2.4861,-9.475,0.6587,2.4635,-9.4693,0.0097,-0.0301,-0.0274,0.0032,0.0452,-0.0559,98781,2021-05-19 13:02:55:398
0.6464,2.4861,-9.475,0.6587,2.4635,-9.4693,0.0097,-0.0301,-0.0274,0.0032,0.0452,-0.0559,98781,2021-05-19 13:02:55:398
0.6464,2.4861,-9.475,0.6587,2.4635,-9.4693,0.0097,-0.0301,-0.0274,0.0032,0.0452,-0.0559,98782,2021-05-19 13:02:55:399
0.6464,2.4861,-9.475,0.6587,2.4635,-9.4693,0.0097,-0.0301,-0.0274,0.0032,0.0452,-0.0559,98782,2021-05-19 13:02:55:399
1.8864,-0.8853,-9.3763,3.8987,-0.9537,-8.9477,0,0,0,0.7868,-0.6281,-1.2782,98831,2021-05-19 13:02:55:448
6.0497,-2.8576,-10.2858,1.7097,-5.5063,-7.9327,2.9036,1.7016,-1.9668,0.5252,1.6514,1.1976,99331,2021-05-19 13:02:55:948
10.841,-5.1793,-2.505,6.5175,-5.3907,-4.9632,0.6037,-1.4706,2.2574,0.2775,0.0884,-1.2397,99831,2021-05-19 13:02:56:448
5.4718,-3.172,-5.9922,3.7161,-5.0556,-7.5367,-2.1853,1.5519,2.342,0.6217,-1.2924,0.2246,100330,2021-05-19 13:02:56:947
3.7499,-6.8222,-8.9246,4.8423,-4.6022,-7.1793,-1.6466,-2.1825,-2.7855,-0.6243,0.5795,-0.4966,100830,2021-05-19 13:02:57:447
6.9078,-1.1171,-7.3777,5.8458,-2.5346,-7.4547,5.2612,-3.5726,-0.6332,0.4109,-0.0615,0.2682,101330,2021-05-19 13:02:57:947
5.968,0.7259,-9.1319,6.2764,0.3574,-7.5266,-1.7605,0.8291,-0.6757,-0.155,0.9004,-0.1405,101832,2021-05-19 13:02:58:449
5.5065,-0.0206,-7.081,6.1892,-0.39,-7.5969,-0.0388,0.6445,0.3374,0.0197,-0.6429,0.3861,102331,2021-05-19 13:02:58:948
3.2495,0.5973,-6.6287,5.7629,-1.5735,-7.7771,-0.5929,-2.3111,-2.3191,-0.6409,1.9856,-1.2489,102831,2021-05-19 13:02:59:448
5.4473,-1.4115,-8.2292,5.5364,-1.1076,-8.0182,0.9329,-1.6389,-0.9782,-0.1025,0.0623,-0.0353,103331,2021-05-19 13:02:59:948
7.1288,-0.0084,-8.8472,5.1925,-1.5454,-8.1743,-0.097,1.1238,0.3668,0.1028,-0.1956,1.2025,103830,2021-05-19 13:03:00:447
5.467,-1.8697,-8.4338,5.1539,-1.5537,-8.1972,2.0708,1.1771,-0.3667,-0.0067,-0.6787,0.5157,104332,2021-05-19 13:03:00:949
3.3529,-3.6206,-8.2783,3.1152,-3.4439,-8.6375,0.5722,-1.509,0.0984,-0.2918,-0.354,1.2495,104830,2021-05-19 13:03:01:447
3.9485,-3.1744,-8.5424,3.3663,-3.0155,-8.7032,0.7253,0.0681,0.1499,-0.0156,0.0582,-0.0646,105332,2021-05-19 13:03:01:949
0.1519,-3.7002,-9.8845,0.6994,-3.4838,-9.1402,-0.7046,0.0123,-0.7913,0.0702,-1.0223,0.3091,105830,2021-05-19 13:03:02:447
1.1369,0.3679,-9.0867,0.7544,-3.1645,-9.2513,-0.5702,-1.4594,-0.375,-0.0568,0.876,-1.4712,106331,2021-05-19 13:03:02:948
4.6905,-1.4255,-8.9121,3.4004,-2.8597,-8.7424,-0.9889,1.5573,-1.2281,0.2636,0.9036,0.3853,106831,2021-05-19 13:03:03:448
3.2931,-3.5913,-8.3282,3.0685,-2.9042,-8.8499,-0.0533,-0.7395,0.48,-0.3001,0.3995,0.7793,107331,2021-05-19 13:03:03:948
4.1554,-2.5774,-8.6665,3.1864,-2.9916,-8.7788,0.6388,0.4523,0.0648,-0.135,0.1848,0.6435,107831,2021-05-19 13:03:04:448
3.093,-5.0569,-7.8419,3.0539,-4.8201,-7.9756,0.3163,0.2247,0.0976,0.6047,0.0235,0.0672,108331,2021-05-19 13:03:04:948
3.9323,-6.0736,-6.6885,3.6953,-5.6581,-7.1064,-0.1784,-0.4971,0.1356,0.1933,0.0615,-0.0913,108831,2021-05-19 13:03:05:448
3.8563,-6.0793,-6.7412,3.936,-5.9435,-6.7345,-0.1352,-0.1041,0.0019,0.0666,-0.0629,-0.1515,109331,2021-05-19 13:03:05:948
3.9305,-5.9207,-6.7235,3.8962,-5.922,-6.7765,0.057,-0.0939,-0.0367,-0.0463,0.0148,0.0887,109831,2021-05-19 13:03:06:448
4.1599,-5.924,-6.7505,3.8838,-5.9335,-6.7735,-0.0233,0.206,-0.1202,0.04,0.0538,0.056,110465,2021-05-19 13:03:07:082
4.1599,-5.924,-6.7505,3.8838,-5.9335,-6.7735,-0.0233,0.206,-0.1202,0.04,0.0538,0.056,110466,2021-05-19 13:03:07:083
4.1599,-5.924,-6.7505,3.8838,-5.9335,-6.7735,-0.0233,0.206,-0.1202,0.04,0.0538,0.056,110466,2021-05-19 13:03:07:083
4.1599,-5.924,-6.7505,3.8838,-5.9335,-6.7735,-0.0233,0.206,-0.1202,0.04,0.0538,0.056,110467,2021-05-19 13:03:07:084
4.1599,-5.924,-6.7505,3.8838,-5.9335,-6.7735,-0.0233,0.206,-0.1202,0.04,0.0538,0.056,110467,2021-05-19 13:03:07:084
4.1599,-5.924,-6.7505,3.8838,-5.9335,-6.7735,-0.0233,0.206,-0.1202,0.04,0.0538,0.056,110467,2021-05-19 13:03:07:084
4.1599,-5.924,-6.7505,3.8838,-5.9335,-6.7735,-0.0233,0.206,-0.1202,0.04,0.0538,0.056,110467,2021-05-19 13:03:07:084
4.1599,-5.924,-6.7505,3.8838,-5.9335,-6.7735,-0.0233,0.206,-0.1202,0.04,0.0538,0.056,110467,2021-05-19 13:03:07:084
4.1599,-5.924,-6.7505,3.8838,-5.9335,-6.7735,-0.0233,0.206,-0.1202,0.04,0.0538,0.056,110467,2021-05-19 13:03:07:084
4.1599,-5.924,-6.7505,3.8838,-5.9335,-6.7735,-0.0233,0.206,-0.1202,0.04,0.0538,0.056,110469,2021-05-19 13:03:07:086
4.1599,-5.924,-6.7505,3.8838,-5.9335,-6.7735,-0.0233,0.206,-0.1202,0.04,0.0538,0.056,110470,2021-05-19 13:03:07:087
4.1599,-5.924,-6.7505,3.8838,-5.9335,-6.7735,-0.0233,0.206,-0.1202,0.04,0.0538,0.056,110470,2021-05-19 13:03:07:087
4.1599,-5.924,-6.7505,3.8838,-5.9335,-6.7735,-0.0233,0.206,-0.1202,0.04,0.0538,0.056,110474,2021-05-19 13:03:07:091
4.1599,-5.924,-6.7505,3.8838,-5.9335,-6.7735,-0.0233,0.206,-0.1202,0.04,0.0538,0.056,110475,2021-05-19 13:03:07:092
3.9948,-6.1056,-6.6616,4.0985,-5.815,-6.7497,0,0,0,-0.0024,-0.0263,-0.06,110483,2021-05-19 13:03:07:100
2.5504,-4.2631,-8.4918,2.5294,-4.2847,-8.4507,-0.0651,0.0357,-0.0245,0.0021,-0.0101,-2.00E-04,110984,2021-05-19 13:03:07:601
2.5884,-4.3681,-8.4263,2.5491,-4.278,-8.4481,0.0428,-0.0745,0.0452,-0.0102,0.0177,0.0104,111483,2021-05-19 13:03:08:100
2.5851,-4.27,-8.473,2.5787,-4.2494,-8.4536,0,0,0,0.0047,-0.0156,-0.0154,111985,2021-05-19 13:03:08:602
2.7015,-4.2622,-8.4416,2.6181,-4.2362,-8.4481,0.0465,-0.0126,0.0182,0.0043,0.0153,-0.0093,112484,2021-05-19 13:03:09:101
2.5953,-4.2476,-8.4601,2.6555,-4.2536,-8.4277,0,0,0,-8.00E-04,0.0014,0.0066,112983,2021-05-19 13:03:09:600
2.5953,-4.2476,-8.4601,2.6555,-4.2536,-8.4277,0,0,0,-8.00E-04,0.0014,0.0066,112985,2021-05-19 13:03:09:602
2.5953,-4.2476,-8.4601,2.6555,-4.2536,-8.4277,0,0,0,-8.00E-04,0.0014,0.0066,112985,2021-05-19 13:03:09:602
2.5953,-4.2476,-8.4601,2.6555,-4.2536,-8.4277,0,0,0,-8.00E-04,0.0014,0.0066,112985,2021-05-19 13:03:09:602
2.5953,-4.2476,-8.4601,2.6555,-4.2536,-8.4277,0,0,0,-8.00E-04,0.0014,0.0066,112985,2021-05-19 13:03:09:602
2.5953,-4.2476,-8.4601,2.6555,-4.2536,-8.4277,0,0,0,-8.00E-04,0.0014,0.0066,112985,2021-05-19 13:03:09:602
2.5953,-4.2476,-8.4601,2.6555,-4.2536,-8.4277,0,0,0,-8.00E-04,0.0014,0.0066,112986,2021-05-19 13:03:09:603
2.5953,-4.2476,-8.4601,2.6555,-4.2536,-8.4277,0,0,0,-8.00E-04,0.0014,0.0066,112986,2021-05-19 13:03:09:603
2.5953,-4.2476,-8.4601,2.6555,-4.2536,-8.4277,0,0,0,-8.00E-04,0.0014,0.0066,112986,2021-05-19 13:03:09:603
2.6091,-4.2,-8.499,2.578,-4.1702,-8.4932,0.0217,-0.0221,0.0132,-0.0063,0.0092,-0.0047,113086,2021-05-19 13:03:09:703
2.6518,-4.1085,-8.5083,2.6413,-4.1411,-8.488,0.0014,-0.0352,0.0105,-0.0105,-0.004,-0.0041,113586,2021-05-19 13:03:10:203
2.6034,-4.2141,-8.4996,2.6327,-4.135,-8.4936,-0.0299,-0.0369,0.017,0.0191,-0.0128,0.0194,114085,2021-05-19 13:03:10:702
2.5134,-4.1551,-8.5307,2.5654,-4.2164,-8.4742,0,0,0,0.004,-0.014,-0.0131,114585,2021-05-19 13:03:11:202
2.56,-4.2374,-8.5074,2.5784,-4.1499,-8.503,-0.0456,-0.0238,-0.0068,0.004,-2.00E-04,-0.0011,115361,2021-05-19 13:03:11:978
2.56,-4.2374,-8.5074,2.5784,-4.1499,-8.503,-0.0456,-0.0238,-0.0068,0.004,-2.00E-04,-0.0011,115368,2021-05-19 13:03:11:985
2.56,-4.2374,-8.5074,2.5784,-4.1499,-8.503,-0.0456,-0.0238,-0.0068,0.004,-2.00E-04,-0.0011,115369,2021-05-19 13:03:11:986
2.56,-4.2374,-8.5074,2.5784,-4.1499,-8.503,-0.0456,-0.0238,-0.0068,0.004,-2.00E-04,-0.0011,115369,2021-05-19 13:03:11:986
2.56,-4.2374,-8.5074,2.5784,-4.1499,-8.503,-0.0456,-0.0238,-0.0068,0.004,-2.00E-04,-0.0011,115369,2021-05-19 13:03:11:986
2.56,-4.2374,-8.5074,2.5784,-4.1499,-8.503,-0.0456,-0.0238,-0.0068,0.004,-2.00E-04,-0.0011,115369,2021-05-19 13:03:11:986
2.56,-4.2374,-8.5074,2.5784,-4.1499,-8.503,-0.0456,-0.0238,-0.0068,0.004,-2.00E-04,-0.0011,115370,2021-05-19 13:03:11:987
2.56,-4.2374,-8.5074,2.5784,-4.1499,-8.503,-0.0456,-0.0238,-0.0068,0.004,-2.00E-04,-0.0011,115370,2021-05-19 13:03:11:987
2.56,-4.2374,-8.5074,2.5784,-4.1499,-8.503,-0.0456,-0.0238,-0.0068,0.004,-2.00E-04,-0.0011,115370,2021-05-19 13:03:11:987
2.56,-4.2374,-8.5074,2.5784,-4.1499,-8.503,-0.0456,-0.0238,-0.0068,0.004,-2.00E-04,-0.0011,115370,2021-05-19 13:03:11:987
2.56,-4.2374,-8.5074,2.5784,-4.1499,-8.503,-0.0456,-0.0238,-0.0068,0.004,-2.00E-04,-0.0011,115370,2021-05-19 13:03:11:987
2.56,-4.2374,-8.5074,2.5784,-4.1499,-8.503,-0.0456,-0.0238,-0.0068,0.004,-2.00E-04,-0.0011,115371,2021-05-19 13:03:11:988
2.56,-4.2374,-8.5074,2.5784,-4.1499,-8.503,-0.0456,-0.0238,-0.0068,0.004,-2.00E-04,-0.0011,115371,2021-05-19 13:03:11:988
2.56,-4.2374,-8.5074,2.5784,-4.1499,-8.503,-0.0456,-0.0238,-0.0068,0.004,-2.00E-04,-0.0011,115371,2021-05-19 13:03:11:988
2.56,-4.2374,-8.5074,2.5784,-4.1499,-8.503,-0.0456,-0.0238,-0.0068,0.004,-2.00E-04,-0.0011,115371,2021-05-19 13:03:11:988
2.6243,-4.2015,-8.5238,2.5384,-4.2234,-8.4788,-0.0456,-0.0238,-0.0068,0.004,-2.00E-04,-0.0011,115386,2021-05-19 13:03:12:003
2.6243,-4.2015,-8.5238,2.5384,-4.2234,-8.4788,-0.0456,-0.0238,-0.0068,0.004,-2.00E-04,-0.0011,115387,2021-05-19 13:03:12:004
2.6243,-4.2015,-8.5238,2.5384,-4.2234,-8.4788,-0.0456,-0.0238,-0.0068,0.004,-2.00E-04,-0.0011,115388,2021-05-19 13:03:12:005
2.6243,-4.2015,-8.5238,2.5384,-4.2234,-8.4788,-0.0456,-0.0238,-0.0068,0.004,-2.00E-04,-0.0011,115388,2021-05-19 13:03:12:005
2.6243,-4.2015,-8.5238,2.5384,-4.2234,-8.4788,-0.0456,-0.0238,-0.0068,0.004,-2.00E-04,-0.0011,115388,2021-05-19 13:03:12:005
2.6243,-4.2015,-8.5238,2.5384,-4.2234,-8.4788,-0.0456,-0.0238,-0.0068,0.004,-2.00E-04,-0.0011,115389,2021-05-19 13:03:12:006
2.6243,-4.2015,-8.5238,2.5384,-4.2234,-8.4788,-0.0456,-0.0238,-0.0068,0.004,-2.00E-04,-0.0011,115389,2021-05-19 13:03:12:006
2.6243,-4.2015,-8.5238,2.5384,-4.2234,-8.4788,-0.0456,-0.0238,-0.0068,0.004,-2.00E-04,-0.0011,115389,2021-05-19 13:03:12:006
2.6243,-4.2015,-8.5238,2.5384,-4.2234,-8.4788,-0.0456,-0.0238,-0.0068,0.004,-2.00E-04,-0.0011,115389,2021-05-19 13:03:12:006
2.6243,-4.2015,-8.5238,2.5384,-4.2234,-8.4788,-0.0456,-0.0238,-0.0068,0.004,-2.00E-04,-0.0011,115389,2021-05-19 13:03:12:006
2.6243,-4.2015,-8.5238,2.5384,-4.2234,-8.4788,-0.0456,-0.0238,-0.0068,0.004,-2.00E-04,-0.0011,115389,2021-05-19 13:03:12:006
2.6243,-4.2015,-8.5238,2.5384,-4.2234,-8.4788,-0.0456,-0.0238,-0.0068,0.004,-2.00E-04,-0.0011,115389,2021-05-19 13:03:12:006
2.6243,-4.2015,-8.5238,2.5384,-4.2234,-8.4788,-0.0456,-0.0238,-0.0068,0.004,-2.00E-04,-0.0011,115390,2021-05-19 13:03:12:007
2.6243,-4.2015,-8.5238,2.5384,-4.2234,-8.4788,0,0,0,0.004,-2.00E-04,-0.0011,115390,2021-05-19 13:03:12:007
2.6243,-4.2015,-8.5238,2.5384,-4.2234,-8.4788,0,0,0,0.004,-2.00E-04,-0.0011,115390,2021-05-19 13:03:12:007
2.6243,-4.2015,-8.5238,2.5384,-4.2234,-8.4788,0,0,0,0.004,-2.00E-04,-0.0011,115390,2021-05-19 13:03:12:007
2.6243,-4.2015,-8.5238,2.5384,-4.2234,-8.4788,0,0,0,0.004,-2.00E-04,-0.0011,115390,2021-05-19 13:03:12:007
2.6243,-4.2015,-8.5238,2.5384,-4.2234,-8.4788,0,0,0,0.004,-2.00E-04,-0.0011,115390,2021-05-19 13:03:12:007
2.6243,-4.2015,-8.5238,2.5384,-4.2234,-8.4788,0,0,0,0.004,-2.00E-04,-0.0011,115391,2021-05-19 13:03:12:008
2.6243,-4.2015,-8.5238,2.5384,-4.2234,-8.4788,0,0,0,0.004,-2.00E-04,-0.0011,115391,2021-05-19 13:03:12:008
2.6243,-4.2015,-8.5238,2.5384,-4.2234,-8.4788,0,0,0,0.004,-2.00E-04,-0.0011,115391,2021-05-19 13:03:12:008
2.6243,-4.2015,-8.5238,2.5384,-4.2234,-8.4788,0,0,0,0.004,-2.00E-04,-0.0011,115391,2021-05-19 13:03:12:008
2.6243,-4.2015,-8.5238,2.5384,-4.2234,-8.4788,0,0,0,0.004,-2.00E-04,-0.0011,115392,2021-05-19 13:03:12:009
2.6243,-4.2015,-8.5238,2.5384,-4.2234,-8.4788,0,0,0,0.004,-2.00E-04,-0.0011,115392,2021-05-19 13:03:12:009
2.6243,-4.2015,-8.5238,2.5384,-4.2234,-8.4788,0,0,0,0.004,-2.00E-04,-0.0011,115392,2021-05-19 13:03:12:009
2.6243,-4.2015,-8.5238,2.5384,-4.2234,-8.4788,0,0,0,0.0049,0.0012,-0.007,115400,2021-05-19 13:03:12:017
2.9139,-3.1983,-8.8316,2.8633,-3.1374,-8.839,-0.025,-0.044,0.008,0.0108,-5.00E-04,-0.007,115901,2021-05-19 13:03:12:518
2.9139,-3.1983,-8.8316,2.8633,-3.1374,-8.839,-0.025,-0.044,0.008,0.0108,-5.00E-04,-0.007,115904,2021-05-19 13:03:12:521
2.9139,-3.1983,-8.8316,2.8633,-3.1374,-8.839,-0.025,-0.044,0.008,0.0108,-5.00E-04,-0.007,115904,2021-05-19 13:03:12:521
2.9139,-3.1983,-8.8316,2.8633,-3.1374,-8.839,-0.025,-0.044,0.008,0.0108,-5.00E-04,-0.007,115905,2021-05-19 13:03:12:522
2.9139,-3.1983,-8.8316,2.8633,-3.1374,-8.839,-0.025,-0.044,0.008,0.0108,-5.00E-04,-0.007,115905,2021-05-19 13:03:12:522
2.9139,-3.1983,-8.8316,2.8633,-3.1374,-8.839,-0.025,-0.044,0.008,0.0108,-5.00E-04,-0.007,115906,2021-05-19 13:03:12:523
2.9139,-3.1983,-8.8316,2.8633,-3.1374,-8.839,-0.025,-0.044,0.008,0.0108,-5.00E-04,-0.007,115906,2021-05-19 13:03:12:523
2.9139,-3.1983,-8.8316,2.8633,-3.1374,-8.839,-0.025,-0.044,0.008,0.0108,-5.00E-04,-0.007,115906,2021-05-19 13:03:12:523
2.9139,-3.1983,-8.8316,2.8633,-3.1374,-8.839,-0.025,-0.044,0.008,0.0108,-5.00E-04,-0.007,115907,2021-05-19 13:03:12:524
2.9139,-3.1983,-8.8316,2.8633,-3.1374,-8.839,-0.025,-0.044,0.008,0.0108,-5.00E-04,-0.007,115907,2021-05-19 13:03:12:524
2.9139,-3.1983,-8.8316,2.8633,-3.1374,-8.839,-0.025,-0.044,0.008,0.0108,-5.00E-04,-0.007,115907,2021-05-19 13:03:12:524
2.9139,-3.1983,-8.8316,2.8633,-3.1374,-8.839,-0.025,-0.044,0.008,0.0108,-5.00E-04,-0.007,115908,2021-05-19 13:03:12:525
2.9139,-3.1983,-8.8316,2.8633,-3.1374,-8.839,-0.025,-0.044,0.008,0.0108,-5.00E-04,-0.007,115908,2021-05-19 13:03:12:525
2.9139,-3.1983,-8.8316,2.8633,-3.1374,-8.839,-0.025,-0.044,0.008,0.0108,-5.00E-04,-0.007,115908,2021-05-19 13:03:12:525
2.9139,-3.1983,-8.8316,2.8633,-3.1374,-8.839,-0.025,-0.044,0.008,0.0108,-5.00E-04,-0.007,115909,2021-05-19 13:03:12:526
2.9139,-3.1983,-8.8316,2.8633,-3.1374,-8.839,-0.025,-0.044,0.008,0.0108,-5.00E-04,-0.007,115909,2021-05-19 13:03:12:526
2.9139,-3.1983,-8.8316,2.8633,-3.1374,-8.839,-0.025,-0.044,0.008,0.0108,-5.00E-04,-0.007,115909,2021-05-19 13:03:12:526
2.9139,-3.1983,-8.8316,2.8633,-3.1374,-8.839,-0.025,-0.044,0.008,0.0108,-5.00E-04,-0.007,115910,2021-05-19 13:03:12:527
2.9139,-3.1983,-8.8316,2.8633,-3.1374,-8.839,-0.025,-0.044,0.008,0.0108,-5.00E-04,-0.007,115910,2021-05-19 13:03:12:527
2.9139,-3.1983,-8.8316,2.8633,-3.1374,-8.839,-0.025,-0.044,0.008,0.0108,-5.00E-04,-0.007,115910,2021-05-19 13:03:12:527
2.9139,-3.1983,-8.8316,2.8633,-3.1374,-8.839,-0.025,-0.044,0.008,0.0108,-5.00E-04,-0.007,115910,2021-05-19 13:03:12:527
2.9139,-3.1983,-8.8316,2.8633,-3.1374,-8.839,-0.025,-0.044,0.008,0.0108,-5.00E-04,-0.007,115911,2021-05-19 13:03:12:528
2.9139,-3.1983,-8.8316,2.8633,-3.1374,-8.839,-0.025,-0.044,0.008,0.0108,-5.00E-04,-0.007,115911,2021-05-19 13:03:12:528
2.9139,-3.1983,-8.8316,2.8633,-3.1374,-8.839,-0.025,-0.044,0.008,0.0108,-5.00E-04,-0.007,115911,2021-05-19 13:03:12:528
2.9139,-3.1983,-8.8316,2.8633,-3.1374,-8.839,-0.025,-0.044,0.008,0.0108,-5.00E-04,-0.007,115912,2021-05-19 13:03:12:529
2.9139,-3.1983,-8.8316,2.8633,-3.1374,-8.839,-0.025,-0.044,0.008,0.0108,-5.00E-04,-0.007,115912,2021-05-19 13:03:12:529
2.9139,-3.1983,-8.8316,2.8633,-3.1374,-8.839,-0.025,-0.044,0.008,0.0108,-5.00E-04,-0.007,115912,2021-05-19 13:03:12:529
2.9139,-3.1983,-8.8316,2.8633,-3.1374,-8.839,-0.025,-0.044,0.008,0.0108,-5.00E-04,-0.007,115912,2021-05-19 13:03:12:529
2.9139,-3.1983,-8.8316,2.8633,-3.1374,-8.839,-0.025,-0.044,0.008,0.0108,-5.00E-04,-0.007,115913,2021-05-19 13:03:12:530
2.9139,-3.1983,-8.8316,2.8633,-3.1374,-8.839,-0.025,-0.044,0.008,0.0108,-5.00E-04,-0.007,115913,2021-05-19 13:03:12:530
2.9139,-3.1983,-8.8316,2.8633,-3.1374,-8.839,-0.025,-0.044,0.008,0.0108,-5.00E-04,-0.007,115913,2021-05-19 13:03:12:530
2.9139,-3.1983,-8.8316,2.8633,-3.1374,-8.839,-0.025,-0.044,0.008,0.0108,-5.00E-04,-0.007,115913,2021-05-19 13:03:12:530
2.9139,-3.1983,-8.8316,2.8633,-3.1374,-8.839,-0.025,-0.044,0.008,0.0108,-5.00E-04,-0.007,115913,2021-05-19 13:03:12:530
2.9139,-3.1983,-8.8316,2.8633,-3.1374,-8.839,-0.025,-0.044,0.008,0.0108,-5.00E-04,-0.007,115914,2021-05-19 13:03:12:531
2.9139,-3.1983,-8.8316,2.8633,-3.1374,-8.839,-0.025,-0.044,0.008,0.0108,-5.00E-04,-0.007,115914,2021-05-19 13:03:12:531
2.9139,-3.1983,-8.8316,2.8633,-3.1374,-8.839,-0.025,-0.044,0.008,0.0108,-5.00E-04,-0.007,115914,2021-05-19 13:03:12:531
2.9139,-3.1983,-8.8316,2.8633,-3.1374,-8.839,-0.025,-0.044,0.008,0.0108,-5.00E-04,-0.007,115914,2021-05-19 13:03:12:531
2.9139,-3.1983,-8.8316,2.8633,-3.1374,-8.839,-0.025,-0.044,0.008,0.0108,-5.00E-04,-0.007,115914,2021-05-19 13:03:12:531
2.9139,-3.1983,-8.8316,2.8633,-3.1374,-8.839,-0.025,-0.044,0.008,0.0108,-5.00E-04,-0.007,115915,2021-05-19 13:03:12:532
2.9139,-3.1983,-8.8316,2.8633,-3.1374,-8.839,-0.025,-0.044,0.008,0.0108,-5.00E-04,-0.007,115915,2021-05-19 13:03:12:532
2.9139,-3.1983,-8.8316,2.8633,-3.1374,-8.839,-0.025,-0.044,0.008,0.0108,-5.00E-04,-0.007,115915,2021-05-19 13:03:12:532
2.9139,-3.1983,-8.8316,2.8633,-3.1374,-8.839,-0.025,-0.044,0.008,0.0108,-5.00E-04,-0.007,115915,2021-05-19 13:03:12:532
2.9139,-3.1983,-8.8316,2.8633,-3.1374,-8.839,-0.025,-0.044,0.008,0.0108,-5.00E-04,-0.007,115915,2021-05-19 13:03:12:532
2.9139,-3.1983,-8.8316,2.8633,-3.1374,-8.839,-0.025,-0.044,0.008,0.0108,-5.00E-04,-0.007,115915,2021-05-19 13:03:12:532
2.9139,-3.1983,-8.8316,2.8633,-3.1374,-8.839,-0.025,-0.044,0.008,0.0108,-5.00E-04,-0.007,115916,2021-05-19 13:03:12:533
2.9139,-3.1983,-8.8316,2.8633,-3.1374,-8.839,-0.025,-0.044,0.008,0.0108,-5.00E-04,-0.007,115916,2021-05-19 13:03:12:533
2.9139,-3.1983,-8.8316,2.8633,-3.1374,-8.839,-0.025,-0.044,0.008,0.0108,-5.00E-04,-0.007,115916,2021-05-19 13:03:12:533
2.9139,-3.1983,-8.8316,2.8633,-3.1374,-8.839,-0.025,-0.044,0.008,0.0108,-5.00E-04,-0.007,115916,2021-05-19 13:03:12:533
2.9139,-3.1983,-8.8316,2.8633,-3.1374,-8.839,-0.025,-0.044,0.008,0.0108,-5.00E-04,-0.007,115916,2021-05-19 13:03:12:533
2.9139,-3.1983,-8.8316,2.8633,-3.1374,-8.839,-0.025,-0.044,0.008,0.0108,-5.00E-04,-0.007,115916,2021-05-19 13:03:12:533
2.9139,-3.1983,-8.8316,2.8633,-3.1374,-8.839,-0.025,-0.044,0.008,0.0108,-5.00E-04,-0.007,115917,2021-05-19 13:03:12:534
2.9139,-3.1983,-8.8316,2.8633,-3.1374,-8.839,-0.025,-0.044,0.008,0.0108,-5.00E-04,-0.007,115917,2021-05-19 13:03:12:534
2.9139,-3.1983,-8.8316,2.8633,-3.1374,-8.839,-0.025,-0.044,0.008,0.0108,-5.00E-04,-0.007,115917,2021-05-19 13:03:12:534
2.9139,-3.1983,-8.8316,2.8633,-3.1374,-8.839,-0.025,-0.044,0.008,0.0108,-5.00E-04,-0.007,115917,2021-05-19 13:03:12:534
2.9139,-3.1983,-8.8316,2.8633,-3.1374,-8.839,-0.025,-0.044,0.008,0.0108,-5.00E-04,-0.007,115917,2021-05-19 13:03:12:534
2.9139,-3.1983,-8.8316,2.8633,-3.1374,-8.839,-0.025,-0.044,0.008,0.0108,-5.00E-04,-0.007,115917,2021-05-19 13:03:12:534
2.9139,-3.1983,-8.8316,2.8633,-3.1374,-8.839,-0.025,-0.044,0.008,0.0108,-5.00E-04,-0.007,115918,2021-05-19 13:03:12:535
2.9139,-3.1983,-8.8316,2.8633,-3.1374,-8.839,-0.025,-0.044,0.008,0.0108,-5.00E-04,-0.007,115918,2021-05-19 13:03:12:535
2.9139,-3.1983,-8.8316,2.8633,-3.1374,-8.839,-0.025,-0.044,0.008,0.0108,-5.00E-04,-0.007,115918,2021-05-19 13:03:12:535
2.9139,-3.1983,-8.8316,2.8633,-3.1374,-8.839,-0.025,-0.044,0.008,0.0108,-5.00E-04,-0.007,115919,2021-05-19 13:03:12:536
2.9139,-3.1983,-8.8316,2.8633,-3.1374,-8.839,-0.025,-0.044,0.008,0.0108,-5.00E-04,-0.007,115919,2021-05-19 13:03:12:536
2.9139,-3.1983,-8.8316,2.8633,-3.1374,-8.839,-0.025,-0.044,0.008,0.0108,-5.00E-04,-0.007,115919,2021-05-19 13:03:12:536
2.9139,-3.1983,-8.8316,2.8633,-3.1374,-8.839,-0.025,-0.044,0.008,0.0108,-5.00E-04,-0.007,115919,2021-05-19 13:03:12:536
2.9139,-3.1983,-8.8316,2.8633,-3.1374,-8.839,-0.025,-0.044,0.008,0.0108,-5.00E-04,-0.007,116192,2021-05-19 13:03:12:809
2.9139,-3.1983,-8.8316,2.8633,-3.1374,-8.839,-0.025,-0.044,0.008,0.0108,-5.00E-04,-0.007,116193,2021-05-19 13:03:12:810
2.9139,-3.1983,-8.8316,2.8633,-3.1374,-8.839,-0.025,-0.044,0.008,0.0108,-5.00E-04,-0.007,116193,2021-05-19 13:03:12:810
2.9139,-3.1983,-8.8316,2.8633,-3.1374,-8.839,-0.025,-0.044,0.008,0.0108,-5.00E-04,-0.007,116193,2021-05-19 13:03:12:810
2.9139,-3.1983,-8.8316,2.8633,-3.1374,-8.839,-0.025,-0.044,0.008,0.0108,-5.00E-04,-0.007,116193,2021-05-19 13:03:12:810
2.9139,-3.1983,-8.8316,2.8633,-3.1374,-8.839,-0.025,-0.044,0.008,0.0108,-5.00E-04,-0.007,116194,2021-05-19 13:03:12:811
2.9139,-3.1983,-8.8316,2.8633,-3.1374,-8.839,-0.025,-0.044,0.008,0.0108,-5.00E-04,-0.007,116194,2021-05-19 13:03:12:811
2.9139,-3.1983,-8.8316,2.8633,-3.1374,-8.839,-0.025,-0.044,0.008,0.0108,-5.00E-04,-0.007,116194,2021-05-19 13:03:12:811
2.9139,-3.1983,-8.8316,2.8633,-3.1374,-8.839,-0.025,-0.044,0.008,0.0108,-5.00E-04,-0.007,116194,2021-05-19 13:03:12:811
2.9139,-3.1983,-8.8316,2.8633,-3.1374,-8.839,-0.025,-0.044,0.008,0.0108,-5.00E-04,-0.007,116194,2021-05-19 13:03:12:811
2.8594,-3.2013,-8.8594,2.8735,-3.1891,-8.8172,0,0,0,-0.0023,0.0043,-0.004,116617,2021-05-19 13:03:13:234
2.8594,-3.2013,-8.8594,2.8735,-3.1891,-8.8172,0,0,0,-0.0023,0.0043,-0.004,116623,2021-05-19 13:03:13:240
2.8594,-3.2013,-8.8594,2.8735,-3.1891,-8.8172,0,0,0,-0.0023,0.0043,-0.004,116624,2021-05-19 13:03:13:241
2.8594,-3.2013,-8.8594,2.8735,-3.1891,-8.8172,0,0,0,-0.0023,0.0043,-0.004,116624,2021-05-19 13:03:13:241
2.8594,-3.2013,-8.8594,2.8735,-3.1891,-8.8172,0,0,0,-0.0023,0.0043,-0.004,116624,2021-05-19 13:03:13:241
2.8594,-3.2013,-8.8594,2.8735,-3.1891,-8.8172,0,0,0,-0.0023,0.0043,-0.004,116625,2021-05-19 13:03:13:242
2.8594,-3.2013,-8.8594,2.8735,-3.1891,-8.8172,0,0,0,-0.0023,0.0043,-0.004,116625,2021-05-19 13:03:13:242
2.8594,-3.2013,-8.8594,2.8735,-3.1891,-8.8172,0,0,0,-0.0023,0.0043,-0.004,116625,2021-05-19 13:03:13:242
2.8594,-3.2013,-8.8594,2.8735,-3.1891,-8.8172,0,0,0,-0.0023,0.0043,-0.004,116625,2021-05-19 13:03:13:242
2.8594,-3.2013,-8.8594,2.8735,-3.1891,-8.8172,0,0,0,-0.0023,0.0043,-0.004,116625,2021-05-19 13:03:13:242
2.8594,-3.2013,-8.8594,2.8735,-3.1891,-8.8172,0,0,0,-0.0023,0.0043,-0.004,116625,2021-05-19 13:03:13:242
2.8594,-3.2013,-8.8594,2.8735,-3.1891,-8.8172,0,0,0,-0.0023,0.0043,-0.004,116625,2021-05-19 13:03:13:242
2.8594,-3.2013,-8.8594,2.8735,-3.1891,-8.8172,0,0,0,-0.0023,0.0043,-0.004,116626,2021-05-19 13:03:13:243
2.8594,-3.2013,-8.8594,2.8735,-3.1891,-8.8172,0,0,0,-0.0023,0.0043,-0.004,116626,2021-05-19 13:03:13:243
2.8594,-3.2013,-8.8594,2.8735,-3.1891,-8.8172,0,0,0,-0.0023,0.0043,-0.004,116626,2021-05-19 13:03:13:243
2.8594,-3.2013,-8.8594,2.8735,-3.1891,-8.8172,0,0,0,-0.0023,0.0043,-0.004,116626,2021-05-19 13:03:13:243
2.8594,-3.2013,-8.8594,2.8735,-3.1891,-8.8172,0,0,0,-0.0023,0.0043,-0.004,116626,2021-05-19 13:03:13:243
2.8594,-3.2013,-8.8594,2.8735,-3.1891,-8.8172,0,0,0,-0.0023,0.0043,-0.004,116626,2021-05-19 13:03:13:243
2.8594,-3.2013,-8.8594,2.8735,-3.1891,-8.8172,0,0,0,-0.0023,0.0043,-0.004,116626,2021-05-19 13:03:13:243
2.8594,-3.2013,-8.8594,2.8735,-3.1891,-8.8172,0,0,0,-0.0023,0.0043,-0.004,116626,2021-05-19 13:03:13:243
2.8594,-3.2013,-8.8594,2.8735,-3.1891,-8.8172,0,0,0,-0.0023,0.0043,-0.004,116626,2021-05-19 13:03:13:243
2.8594,-3.2013,-8.8594,2.8735,-3.1891,-8.8172,0,0,0,-0.0023,0.0043,-0.004,116626,2021-05-19 13:03:13:243
2.8594,-3.2013,-8.8594,2.8735,-3.1891,-8.8172,0,0,0,-0.0023,0.0043,-0.004,116626,2021-05-19 13:03:13:243
2.8594,-3.2013,-8.8594,2.8735,-3.1891,-8.8172,0,0,0,-0.0023,0.0043,-0.004,116627,2021-05-19 13:03:13:244
2.8594,-3.2013,-8.8594,2.8735,-3.1891,-8.8172,0,0,0,-0.0023,0.0043,-0.004,116627,2021-05-19 13:03:13:244
2.8594,-3.2013,-8.8594,2.8735,-3.1891,-8.8172,0,0,0,-0.0023,0.0043,-0.004,116627,2021-05-19 13:03:13:244
2.8594,-3.2013,-8.8594,2.8735,-3.1891,-8.8172,0,0,0,-0.0023,0.0043,-0.004,116627,2021-05-19 13:03:13:244
2.8594,-3.2013,-8.8594,2.8735,-3.1891,-8.8172,0,0,0,-0.0023,0.0043,-0.004,116627,2021-05-19 13:03:13:244
2.8594,-3.2013,-8.8594,2.8735,-3.1891,-8.8172,0,0,0,-0.0023,0.0043,-0.004,116627,2021-05-19 13:03:13:244
2.8594,-3.2013,-8.8594,2.8735,-3.1891,-8.8172,0,0,0,-0.0023,0.0043,-0.004,116627,2021-05-19 13:03:13:244
2.8594,-3.2013,-8.8594,2.8735,-3.1891,-8.8172,0,0,0,-0.0023,0.0043,-0.004,116627,2021-05-19 13:03:13:244
2.8594,-3.2013,-8.8594,2.8735,-3.1891,-8.8172,0,0,0,-0.0023,0.0043,-0.004,116627,2021-05-19 13:03:13:244
2.8594,-3.2013,-8.8594,2.8735,-3.1891,-8.8172,0,0,0,-0.0023,0.0043,-0.004,116627,2021-05-19 13:03:13:244
2.8594,-3.2013,-8.8594,2.8735,-3.1891,-8.8172,0,0,0,-0.0023,0.0043,-0.004,116628,2021-05-19 13:03:13:245
2.8594,-3.2013,-8.8594,2.8735,-3.1891,-8.8172,0,0,0,-0.0023,0.0043,-0.004,116628,2021-05-19 13:03:13:245
2.8594,-3.2013,-8.8594,2.8735,-3.1891,-8.8172,0,0,0,-0.0023,0.0043,-0.004,116628,2021-05-19 13:03:13:245
2.8594,-3.2013,-8.8594,2.8735,-3.1891,-8.8172,0,0,0,-0.0023,0.0043,-0.004,116628,2021-05-19 13:03:13:245
2.8594,-3.2013,-8.8594,2.8735,-3.1891,-8.8172,0,0,0,-0.0023,0.0043,-0.004,116628,2021-05-19 13:03:13:245
2.8594,-3.2013,-8.8594,2.8735,-3.1891,-8.8172,0,0,0,-0.0023,0.0043,-0.004,116628,2021-05-19 13:03:13:245
2.8594,-3.2013,-8.8594,2.8735,-3.1891,-8.8172,0,0,0,-0.0023,0.0043,-0.004,116628,2021-05-19 13:03:13:245
2.8594,-3.2013,-8.8594,2.8735,-3.1891,-8.8172,0,0,0,-0.0023,0.0043,-0.004,116628,2021-05-19 13:03:13:245
2.8594,-3.2013,-8.8594,2.8735,-3.1891,-8.8172,0,0,0,-0.0023,0.0043,-0.004,116628,2021-05-19 13:03:13:245
2.8594,-3.2013,-8.8594,2.8735,-3.1891,-8.8172,0,0,0,-0.0023,0.0043,-0.004,116628,2021-05-19 13:03:13:245
2.8594,-3.2013,-8.8594,2.8735,-3.1891,-8.8172,0,0,0,-0.0023,0.0043,-0.004,116629,2021-05-19 13:03:13:246
2.8594,-3.2013,-8.8594,2.8735,-3.1891,-8.8172,0,0,0,-0.0023,0.0043,-0.004,116629,2021-05-19 13:03:13:246
2.8594,-3.2013,-8.8594,2.8735,-3.1891,-8.8172,0,0,0,-0.0023,0.0043,-0.004,116629,2021-05-19 13:03:13:246
2.8594,-3.2013,-8.8594,2.8735,-3.1891,-8.8172,0,0,0,-0.0023,0.0043,-0.004,116629,2021-05-19 13:03:13:246
2.8594,-3.2013,-8.8594,2.8735,-3.1891,-8.8172,0,0,0,-0.0023,0.0043,-0.004,116629,2021-05-19 13:03:13:246
2.8594,-3.2013,-8.8594,2.8735,-3.1891,-8.8172,0,0,0,-0.0023,0.0043,-0.004,116629,2021-05-19 13:03:13:246
2.8594,-3.2013,-8.8594,2.8735,-3.1891,-8.8172,0,0,0,-0.0023,0.0043,-0.004,116629,2021-05-19 13:03:13:246
2.8594,-3.2013,-8.8594,2.8735,-3.1891,-8.8172,0,0,0,-0.0023,0.0043,-0.004,116629,2021-05-19 13:03:13:246
2.8594,-3.2013,-8.8594,2.8735,-3.1891,-8.8172,0,0,0,-0.0023,0.0043,-0.004,116629,2021-05-19 13:03:13:246
2.8594,-3.2013,-8.8594,2.8735,-3.1891,-8.8172,0,0,0,-0.0023,0.0043,-0.004,116629,2021-05-19 13:03:13:246
2.8594,-3.2013,-8.8594,2.8735,-3.1891,-8.8172,0,0,0,-0.0023,0.0043,-0.004,116630,2021-05-19 13:03:13:247
2.8594,-3.2013,-8.8594,2.8735,-3.1891,-8.8172,0,0,0,-0.0023,0.0043,-0.004,116630,2021-05-19 13:03:13:247
2.8594,-3.2013,-8.8594,2.8735,-3.1891,-8.8172,0,0,0,-0.0023,0.0043,-0.004,116630,2021-05-19 13:03:13:247
2.8594,-3.2013,-8.8594,2.8735,-3.1891,-8.8172,0,0,0,-0.0023,0.0043,-0.004,116630,2021-05-19 13:03:13:247
2.8594,-3.2013,-8.8594,2.8735,-3.1891,-8.8172,0,0,0,-0.0023,0.0043,-0.004,116630,2021-05-19 13:03:13:247
2.8594,-3.2013,-8.8594,2.8735,-3.1891,-8.8172,0,0,0,-0.0023,0.0043,-0.004,116630,2021-05-19 13:03:13:247
2.8594,-3.2013,-8.8594,2.8735,-3.1891,-8.8172,0,0,0,-0.0023,0.0043,-0.004,116630,2021-05-19 13:03:13:247
2.8594,-3.2013,-8.8594,2.8735,-3.1891,-8.8172,0,0,0,-0.0023,0.0043,-0.004,116630,2021-05-19 13:03:13:247
2.8594,-3.2013,-8.8594,2.8735,-3.1891,-8.8172,0,0,0,-0.0023,0.0043,-0.004,116630,2021-05-19 13:03:13:247
5.4709,-1.0789,-8.7479,5.6684,-2.5439,-7.5874,0,0,0,-0.079,0.0414,-0.0747,117024,2021-05-19 13:03:13:641
5.4709,-1.0789,-8.7479,5.6684,-2.5439,-7.5874,0,0,0,-0.079,0.0414,-0.0747,117025,2021-05-19 13:03:13:642
5.4709,-1.0789,-8.7479,5.6684,-2.5439,-7.5874,0,0,0,-0.079,0.0414,-0.0747,117025,2021-05-19 13:03:13:642
5.4709,-1.0789,-8.7479,5.6684,-2.5439,-7.5874,0,0,0,-0.079,0.0414,-0.0747,117025,2021-05-19 13:03:13:642
5.4709,-1.0789,-8.7479,5.6684,-2.5439,-7.5874,0,0,0,-0.079,0.0414,-0.0747,117025,2021-05-19 13:03:13:642
5.4709,-1.0789,-8.7479,5.6684,-2.5439,-7.5874,0,0,0,-0.079,0.0414,-0.0747,117025,2021-05-19 13:03:13:642
5.3136,-0.4995,-8.4006,5.1729,-0.8911,-8.2835,-0.5005,0.8931,0.4352,0.068,0.1555,-0.1322,117244,2021-05-19 13:03:13:861
5.2968,-0.3562,-8.2466,5.3641,-0.9231,-8.1575,-0.2387,-0.3506,0.0933,-0.0593,0.2231,-0.2952,117745,2021-05-19 13:03:14:362
6.3778,-2.8672,-6.9628,6.1205,-1.5207,-7.5098,0.4488,-1.3277,0.4772,-0.1666,-0.6171,0.104,118244,2021-05-19 13:03:14:861
4.41,-0.952,-8.822,5.2504,-0.96,-8.2269,-0.6504,0.1693,-0.8094,-0.2045,0.3002,0.3381,118745,2021-05-19 13:03:15:362
5.3136,-0.2946,-8.1215,5.0705,-0.9227,-8.3432,0.0101,0.1879,0.0765,-0.1324,-0.1019,0.0504,119245,2021-05-19 13:03:15:862
3.9096,-0.9341,-8.8834,4.1147,-1.0816,-8.8357,0.1217,0.0419,0.1264,0.0745,-0.3089,0.1663,119745,2021-05-19 13:03:16:362
4.3956,-0.4244,-8.7715,4.3862,-0.7136,-8.742,0.1059,0.2906,0.0119,-0.0492,0.0214,-0.0394,120244,2021-05-19 13:03:16:861
4.3582,-0.5581,-8.761,4.3995,-0.6644,-8.7392,-0.0283,0.0596,-0.0177,-0.0487,0.0023,0.1371,120750,2021-05-19 13:03:17:367
4.5781,-0.7765,-8.7174,4.4542,-0.7344,-8.7058,0.0845,-0.0412,-0.0249,-0.009,0.0208,0.0909,121245,2021-05-19 13:03:17:862
4.3466,-0.7358,-8.7559,4.4251,-0.7357,-8.7205,-0.0354,-0.0239,0.0279,-0.0331,-0.0203,0.0058,121745,2021-05-19 13:03:18:362
4.4486,-0.6912,-8.7191,4.5083,-0.6844,-8.682,-0.0701,-0.0036,-0.0101,0.0038,0.0031,-0.0102,122244,2021-05-19 13:03:18:861
3.6951,-3.7854,-9.5599,1.4065,-1.7684,-9.5428,1.5872,-2.0777,-0.3821,-0.0489,0.0518,-0.1723,122744,2021-05-19 13:03:19:361
3.6951,-3.7854,-9.5599,1.4065,-1.7684,-9.5428,1.5872,-2.0777,-0.3821,-0.0489,0.0518,-0.1723,122745,2021-05-19 13:03:19:362
3.6951,-3.7854,-9.5599,1.4065,-1.7684,-9.5428,1.5872,-2.0777,-0.3821,-0.0489,0.0518,-0.1723,122745,2021-05-19 13:03:19:362
3.6951,-3.7854,-9.5599,1.4065,-1.7684,-9.5428,1.5872,-2.0777,-0.3821,-0.0489,0.0518,-0.1723,122745,2021-05-19 13:03:19:362
3.6951,-3.7854,-9.5599,1.4065,-1.7684,-9.5428,1.5872,-2.0777,-0.3821,-0.0489,0.0518,-0.1723,122745,2021-05-19 13:03:19:362
3.6951,-3.7854,-9.5599,1.4065,-1.7684,-9.5428,1.5872,-2.0777,-0.3821,-0.0489,0.0518,-0.1723,122746,2021-05-19 13:03:19:363
3.6951,-3.7854,-9.5599,1.4065,-1.7684,-9.5428,1.5872,-2.0777,-0.3821,-0.0489,0.0518,-0.1723,122746,2021-05-19 13:03:19:363
3.6951,-3.7854,-9.5599,1.4065,-1.7684,-9.5428,1.5872,-2.0777,-0.3821,-0.0489,0.0518,-0.1723,122746,2021-05-19 13:03:19:363
3.6951,-3.7854,-9.5599,1.4065,-1.7684,-9.5428,1.5872,-2.0777,-0.3821,-0.0489,0.0518,-0.1723,122746,2021-05-19 13:03:19:363
3.6951,-3.7854,-9.5599,1.4065,-1.7684,-9.5428,1.5872,-2.0777,-0.3821,-0.0489,0.0518,-0.1723,122746,2021-05-19 13:03:19:363
3.6951,-3.7854,-9.5599,1.4065,-1.7684,-9.5428,1.5872,-2.0777,-0.3821,-0.0489,0.0518,-0.1723,122746,2021-05-19 13:03:19:363
3.6951,-3.7854,-9.5599,1.4065,-1.7684,-9.5428,1.5872,-2.0777,-0.3821,-0.0489,0.0518,-0.1723,122747,2021-05-19 13:03:19:364
3.6951,-3.7854,-9.5599,1.4065,-1.7684,-9.5428,1.5872,-2.0777,-0.3821,-0.0489,0.0518,-0.1723,122747,2021-05-19 13:03:19:364
3.6951,-3.7854,-9.5599,1.4065,-1.7684,-9.5428,1.5872,-2.0777,-0.3821,-0.0489,0.0518,-0.1723,122747,2021-05-19 13:03:19:364
3.6951,-3.7854,-9.5599,1.4065,-1.7684,-9.5428,1.5872,-2.0777,-0.3821,-0.0489,0.0518,-0.1723,122747,2021-05-19 13:03:19:364
3.6951,-3.7854,-9.5599,1.4065,-1.7684,-9.5428,1.5872,-2.0777,-0.3821,-0.0489,0.0518,-0.1723,122747,2021-05-19 13:03:19:364
3.6951,-3.7854,-9.5599,1.4065,-1.7684,-9.5428,1.5872,-2.0777,-0.3821,-0.0489,0.0518,-0.1723,122747,2021-05-19 13:03:19:364
3.6951,-3.7854,-9.5599,1.4065,-1.7684,-9.5428,1.5872,-2.0777,-0.3821,-0.0489,0.0518,-0.1723,122747,2021-05-19 13:03:19:364
3.6951,-3.7854,-9.5599,1.4065,-1.7684,-9.5428,1.5872,-2.0777,-0.3821,-0.0489,0.0518,-0.1723,122748,2021-05-19 13:03:19:365
3.6951,-3.7854,-9.5599,1.4065,-1.7684,-9.5428,1.5872,-2.0777,-0.3821,-0.0489,0.0518,-0.1723,122748,2021-05-19 13:03:19:365
3.6951,-3.7854,-9.5599,1.4065,-1.7684,-9.5428,1.5872,-2.0777,-0.3821,-0.0489,0.0518,-0.1723,122748,2021-05-19 13:03:19:365
3.6951,-3.7854,-9.5599,1.4065,-1.7684,-9.5428,1.5872,-2.0777,-0.3821,-0.0489,0.0518,-0.1723,122749,2021-05-19 13:03:19:366
3.6951,-3.7854,-9.5599,1.4065,-1.7684,-9.5428,1.5872,-2.0777,-0.3821,-0.0489,0.0518,-0.1723,122752,2021-05-19 13:03:19:369
3.6951,-3.7854,-9.5599,1.4065,-1.7684,-9.5428,1.5872,-2.0777,-0.3821,-0.0489,0.0518,-0.1723,122753,2021-05-19 13:03:19:370
3.6951,-3.7854,-9.5599,1.4065,-1.7684,-9.5428,1.5872,-2.0777,-0.3821,-0.0489,0.0518,-0.1723,122753,2021-05-19 13:03:19:370
3.6951,-3.7854,-9.5599,1.4065,-1.7684,-9.5428,1.5872,-2.0777,-0.3821,-0.0489,0.0518,-0.1723,122753,2021-05-19 13:03:19:370
3.6951,-3.7854,-9.5599,1.4065,-1.7684,-9.5428,1.5872,-2.0777,-0.3821,-0.0489,0.0518,-0.1723,122754,2021-05-19 13:03:19:371
3.6951,-3.7854,-9.5599,1.4065,-1.7684,-9.5428,1.5872,-2.0777,-0.3821,-0.0489,0.0518,-0.1723,122754,2021-05-19 13:03:19:371
3.6951,-3.7854,-9.5599,1.4065,-1.7684,-9.5428,1.5872,-2.0777,-0.3821,-0.0489,0.0518,-0.1723,122754,2021-05-19 13:03:19:371
3.6951,-3.7854,-9.5599,1.4065,-1.7684,-9.5428,1.5872,-2.0777,-0.3821,-0.0489,0.0518,-0.1723,122754,2021-05-19 13:03:19:371
3.6951,-3.7854,-9.5599,1.4065,-1.7684,-9.5428,1.5872,-2.0777,-0.3821,-0.0489,0.0518,-0.1723,122754,2021-05-19 13:03:19:371
3.6951,-3.7854,-9.5599,1.4065,-1.7684,-9.5428,1.5872,-2.0777,-0.3821,-0.0489,0.0518,-0.1723,122755,2021-05-19 13:03:19:372
3.6951,-3.7854,-9.5599,1.4065,-1.7684,-9.5428,1.5872,-2.0777,-0.3821,-0.0489,0.0518,-0.1723,122755,2021-05-19 13:03:19:372
3.6951,-3.7854,-9.5599,1.4065,-1.7684,-9.5428,1.5872,-2.0777,-0.3821,-0.0489,0.0518,-0.1723,122755,2021-05-19 13:03:19:372
3.6951,-3.7854,-9.5599,1.4065,-1.7684,-9.5428,1.5872,-2.0777,-0.3821,-0.0489,0.0518,-0.1723,122755,2021-05-19 13:03:19:372
3.6951,-3.7854,-9.5599,1.4065,-1.7684,-9.5428,1.5872,-2.0777,-0.3821,-0.0489,0.0518,-0.1723,122755,2021-05-19 13:03:19:372
3.6951,-3.7854,-9.5599,1.4065,-1.7684,-9.5428,1.5872,-2.0777,-0.3821,-0.0489,0.0518,-0.1723,122756,2021-05-19 13:03:19:373
3.6951,-3.7854,-9.5599,1.4065,-1.7684,-9.5428,1.5872,-2.0777,-0.3821,-0.0489,0.0518,-0.1723,122756,2021-05-19 13:03:19:373
3.6951,-3.7854,-9.5599,1.4065,-1.7684,-9.5428,1.5872,-2.0777,-0.3821,-0.0489,0.0518,-0.1723,122756,2021-05-19 13:03:19:373
3.6951,-3.7854,-9.5599,1.4065,-1.7684,-9.5428,1.5872,-2.0777,-0.3821,-0.0489,0.0518,-0.1723,122756,2021-05-19 13:03:19:373
3.6951,-3.7854,-9.5599,1.4065,-1.7684,-9.5428,1.5872,-2.0777,-0.3821,-0.0489,0.0518,-0.1723,122756,2021-05-19 13:03:19:373
3.6951,-3.7854,-9.5599,1.4065,-1.7684,-9.5428,1.5872,-2.0777,-0.3821,-0.0489,0.0518,-0.1723,122756,2021-05-19 13:03:19:373
3.6951,-3.7854,-9.5599,1.4065,-1.7684,-9.5428,1.5872,-2.0777,-0.3821,-0.0489,0.0518,-0.1723,122757,2021-05-19 13:03:19:374
3.6951,-3.7854,-9.5599,1.4065,-1.7684,-9.5428,1.5872,-2.0777,-0.3821,-0.0489,0.0518,-0.1723,122757,2021-05-19 13:03:19:374
3.6951,-3.7854,-9.5599,1.4065,-1.7684,-9.5428,1.5872,-2.0777,-0.3821,-0.0489,0.0518,-0.1723,122757,2021-05-19 13:03:19:374
3.6951,-3.7854,-9.5599,1.4065,-1.7684,-9.5428,1.5872,-2.0777,-0.3821,-0.0489,0.0518,-0.1723,122757,2021-05-19 13:03:19:374
3.6951,-3.7854,-9.5599,1.4065,-1.7684,-9.5428,1.5872,-2.0777,-0.3821,-0.0489,0.0518,-0.1723,122757,2021-05-19 13:03:19:374
3.6951,-3.7854,-9.5599,1.4065,-1.7684,-9.5428,1.5872,-2.0777,-0.3821,-0.0489,0.0518,-0.1723,122757,2021-05-19 13:03:19:374
3.6951,-3.7854,-9.5599,1.4065,-1.7684,-9.5428,1.5872,-2.0777,-0.3821,-0.0489,0.0518,-0.1723,122757,2021-05-19 13:03:19:374
3.6951,-3.7854,-9.5599,1.4065,-1.7684,-9.5428,1.5872,-2.0777,-0.3821,-0.0489,0.0518,-0.1723,122758,2021-05-19 13:03:19:375
3.6951,-3.7854,-9.5599,1.4065,-1.7684,-9.5428,1.5872,-2.0777,-0.3821,-0.0489,0.0518,-0.1723,122758,2021-05-19 13:03:19:375
3.6951,-3.7854,-9.5599,1.4065,-1.7684,-9.5428,1.5872,-2.0777,-0.3821,-0.0489,0.0518,-0.1723,122758,2021-05-19 13:03:19:375
3.6951,-3.7854,-9.5599,1.4065,-1.7684,-9.5428,1.5872,-2.0777,-0.3821,-0.0489,0.0518,-0.1723,122758,2021-05-19 13:03:19:375
3.6951,-3.7854,-9.5599,1.4065,-1.7684,-9.5428,1.5872,-2.0777,-0.3821,-0.0489,0.0518,-0.1723,122759,2021-05-19 13:03:19:376
3.6951,-3.7854,-9.5599,1.4065,-1.7684,-9.5428,1.5872,-2.0777,-0.3821,-0.0489,0.0518,-0.1723,122759,2021-05-19 13:03:19:376
3.6951,-3.7854,-9.5599,1.4065,-1.7684,-9.5428,1.5872,-2.0777,-0.3821,-0.0489,0.0518,-0.1723,122759,2021-05-19 13:03:19:376
3.6951,-3.7854,-9.5599,1.4065,-1.7684,-9.5428,1.5872,-2.0777,-0.3821,-0.0489,0.0518,-0.1723,122759,2021-05-19 13:03:19:376
3.6951,-3.7854,-9.5599,1.4065,-1.7684,-9.5428,1.5872,-2.0777,-0.3821,-0.0489,0.0518,-0.1723,122759,2021-05-19 13:03:19:376
3.6951,-3.7854,-9.5599,1.4065,-1.7684,-9.5428,1.5872,-2.0777,-0.3821,0.4591,-1.7737,-0.7214,122760,2021-05-19 13:03:19:377
3.6951,-3.7854,-9.5599,1.4065,-1.7684,-9.5428,1.5872,-2.0777,-0.3821,0.4591,-1.7737,-0.7214,122760,2021-05-19 13:03:19:377
3.6951,-3.7854,-9.5599,1.4065,-1.7684,-9.5428,1.5872,-2.0777,-0.3821,0.4591,-1.7737,-0.7214,122761,2021-05-19 13:03:19:378
3.6951,-3.7854,-9.5599,1.4065,-1.7684,-9.5428,1.5872,-2.0777,-0.3821,0.4591,-1.7737,-0.7214,122761,2021-05-19 13:03:19:378
3.6951,-3.7854,-9.5599,1.4065,-1.7684,-9.5428,1.5872,-2.0777,-0.3821,0.4591,-1.7737,-0.7214,122761,2021-05-19 13:03:19:378
3.6951,-3.7854,-9.5599,1.4065,-1.7684,-9.5428,1.5872,-2.0777,-0.3821,0.4591,-1.7737,-0.7214,122761,2021-05-19 13:03:19:378
3.6951,-3.7854,-9.5599,1.4065,-1.7684,-9.5428,1.5872,-2.0777,-0.3821,0.4591,-1.7737,-0.7214,122761,2021-05-19 13:03:19:378
3.6951,-3.7854,-9.5599,1.4065,-1.7684,-9.5428,1.5872,-2.0777,-0.3821,0.4591,-1.7737,-0.7214,122762,2021-05-19 13:03:19:379
3.6951,-3.7854,-9.5599,1.4065,-1.7684,-9.5428,1.5872,-2.0777,-0.3821,0.4591,-1.7737,-0.7214,122762,2021-05-19 13:03:19:379
3.6951,-3.7854,-9.5599,1.4065,-1.7684,-9.5428,1.5872,-2.0777,-0.3821,0.4591,-1.7737,-0.7214,122762,2021-05-19 13:03:19:379
3.6951,-3.7854,-9.5599,1.4065,-1.7684,-9.5428,1.5872,-2.0777,-0.3821,0.4591,-1.7737,-0.7214,122762,2021-05-19 13:03:19:379
3.6951,-3.7854,-9.5599,1.4065,-1.7684,-9.5428,1.5872,-2.0777,-0.3821,0.4591,-1.7737,-0.7214,122762,2021-05-19 13:03:19:379
3.6951,-3.7854,-9.5599,1.4065,-1.7684,-9.5428,1.5872,-2.0777,-0.3821,0.4591,-1.7737,-0.7214,122763,2021-05-19 13:03:19:380
3.6951,-3.7854,-9.5599,1.4065,-1.7684,-9.5428,1.5872,-2.0777,-0.3821,0.4591,-1.7737,-0.7214,122763,2021-05-19 13:03:19:380
3.6951,-3.7854,-9.5599,1.4065,-1.7684,-9.5428,1.5872,-2.0777,-0.3821,0.4591,-1.7737,-0.7214,122763,2021-05-19 13:03:19:380
3.6951,-3.7854,-9.5599,1.4065,-1.7684,-9.5428,1.5872,-2.0777,-0.3821,0.4591,-1.7737,-0.7214,122763,2021-05-19 13:03:19:380
3.6951,-3.7854,-9.5599,1.4065,-1.7684,-9.5428,1.5872,-2.0777,-0.3821,0.4591,-1.7737,-0.7214,122763,2021-05-19 13:03:19:380
3.6951,-3.7854,-9.5599,1.4065,-1.7684,-9.5428,1.5872,-2.0777,-0.3821,0.4591,-1.7737,-0.7214,122764,2021-05-19 13:03:19:381
3.6951,-3.7854,-9.5599,1.4065,-1.7684,-9.5428,1.5872,-2.0777,-0.3821,0.4591,-1.7737,-0.7214,122764,2021-05-19 13:03:19:381
3.6951,-3.7854,-9.5599,1.4065,-1.7684,-9.5428,1.5872,-2.0777,-0.3821,0.4591,-1.7737,-0.7214,122764,2021-05-19 13:03:19:381
3.6951,-3.7854,-9.5599,1.4065,-1.7684,-9.5428,1.5872,-2.0777,-0.3821,0.4591,-1.7737,-0.7214,122764,2021-05-19 13:03:19:381
3.6951,-3.7854,-9.5599,1.4065,-1.7684,-9.5428,1.5872,-2.0777,-0.3821,0.4591,-1.7737,-0.7214,122764,2021-05-19 13:03:19:381
3.6951,-3.7854,-9.5599,1.4065,-1.7684,-9.5428,1.5872,-2.0777,-0.3821,0.4591,-1.7737,-0.7214,122764,2021-05-19 13:03:19:381
3.6951,-3.7854,-9.5599,1.4065,-1.7684,-9.5428,1.5872,-2.0777,-0.3821,0.4591,-1.7737,-0.7214,122765,2021-05-19 13:03:19:382
3.6951,-3.7854,-9.5599,1.4065,-1.7684,-9.5428,1.5872,-2.0777,-0.3821,0.4591,-1.7737,-0.7214,122765,2021-05-19 13:03:19:382
3.6951,-3.7854,-9.5599,1.4065,-1.7684,-9.5428,1.5872,-2.0777,-0.3821,0.4591,-1.7737,-0.7214,122765,2021-05-19 13:03:19:382
3.6951,-3.7854,-9.5599,1.4065,-1.7684,-9.5428,1.5872,-2.0777,-0.3821,0.4591,-1.7737,-0.7214,122765,2021-05-19 13:03:19:382
3.6951,-3.7854,-9.5599,1.4065,-1.7684,-9.5428,1.5872,-2.0777,-0.3821,0.4591,-1.7737,-0.7214,122765,2021-05-19 13:03:19:382
3.6951,-3.7854,-9.5599,1.4065,-1.7684,-9.5428,1.5872,-2.0777,-0.3821,0.4591,-1.7737,-0.7214,122765,2021-05-19 13:03:19:382
3.6951,-3.7854,-9.5599,1.4065,-1.7684,-9.5428,1.5872,-2.0777,-0.3821,0.4591,-1.7737,-0.7214,122765,2021-05-19 13:03:19:382
3.6951,-3.7854,-9.5599,1.4065,-1.7684,-9.5428,1.5872,-2.0777,-0.3821,0.4591,-1.7737,-0.7214,122766,2021-05-19 13:03:19:383
3.6951,-3.7854,-9.5599,1.4065,-1.7684,-9.5428,1.5872,-2.0777,-0.3821,0.4591,-1.7737,-0.7214,122766,2021-05-19 13:03:19:383
3.6951,-3.7854,-9.5599,1.4065,-1.7684,-9.5428,1.5872,-2.0777,-0.3821,0.4591,-1.7737,-0.7214,122766,2021-05-19 13:03:19:383
3.6951,-3.7854,-9.5599,1.4065,-1.7684,-9.5428,1.5872,-2.0777,-0.3821,0.4591,-1.7737,-0.7214,122766,2021-05-19 13:03:19:383
3.6951,-3.7854,-9.5599,1.4065,-1.7684,-9.5428,1.5872,-2.0777,-0.3821,0.4591,-1.7737,-0.7214,122766,2021-05-19 13:03:19:383
3.6951,-3.7854,-9.5599,1.4065,-1.7684,-9.5428,1.5872,-2.0777,-0.3821,0.4591,-1.7737,-0.7214,122766,2021-05-19 13:03:19:383
3.6951,-3.7854,-9.5599,1.4065,-1.7684,-9.5428,1.5872,-2.0777,-0.3821,0.4591,-1.7737,-0.7214,122767,2021-05-19 13:03:19:384
3.6951,-3.7854,-9.5599,1.4065,-1.7684,-9.5428,1.5872,-2.0777,-0.3821,0.4591,-1.7737,-0.7214,122767,2021-05-19 13:03:19:384
3.6951,-3.7854,-9.5599,1.4065,-1.7684,-9.5428,1.5872,-2.0777,-0.3821,0.4591,-1.7737,-0.7214,122767,2021-05-19 13:03:19:384
3.6951,-3.7854,-9.5599,1.4065,-1.7684,-9.5428,1.5872,-2.0777,-0.3821,0.4591,-1.7737,-0.7214,122767,2021-05-19 13:03:19:384
3.6951,-3.7854,-9.5599,1.4065,-1.7684,-9.5428,1.5872,-2.0777,-0.3821,0.4591,-1.7737,-0.7214,122767,2021-05-19 13:03:19:384
3.6951,-3.7854,-9.5599,1.4065,-1.7684,-9.5428,1.5872,-2.0777,-0.3821,0.4591,-1.7737,-0.7214,122767,2021-05-19 13:03:19:384
3.6951,-3.7854,-9.5599,1.4065,-1.7684,-9.5428,1.5872,-2.0777,-0.3821,0.4591,-1.7737,-0.7214,122767,2021-05-19 13:03:19:384
3.6951,-3.7854,-9.5599,1.4065,-1.7684,-9.5428,1.5872,-2.0777,-0.3821,0.4591,-1.7737,-0.7214,122768,2021-05-19 13:03:19:385
3.6951,-3.7854,-9.5599,1.4065,-1.7684,-9.5428,1.5872,-2.0777,-0.3821,0.4591,-1.7737,-0.7214,122768,2021-05-19 13:03:19:385
3.6951,-3.7854,-9.5599,1.4065,-1.7684,-9.5428,1.5872,-2.0777,-0.3821,0.4591,-1.7737,-0.7214,122768,2021-05-19 13:03:19:385
3.6951,-3.7854,-9.5599,1.4065,-1.7684,-9.5428,1.5872,-2.0777,-0.3821,0.4591,-1.7737,-0.7214,122768,2021-05-19 13:03:19:385
3.6951,-3.7854,-9.5599,1.4065,-1.7684,-9.5428,1.5872,-2.0777,-0.3821,0.4591,-1.7737,-0.7214,122768,2021-05-19 13:03:19:385
3.6951,-3.7854,-9.5599,1.4065,-1.7684,-9.5428,1.5872,-2.0777,-0.3821,0.4591,-1.7737,-0.7214,122769,2021-05-19 13:03:19:386
3.6951,-3.7854,-9.5599,1.4065,-1.7684,-9.5428,1.5872,-2.0777,-0.3821,0.4591,-1.7737,-0.7214,122769,2021-05-19 13:03:19:386
3.6951,-3.7854,-9.5599,1.4065,-1.7684,-9.5428,1.5872,-2.0777,-0.3821,0.4591,-1.7737,-0.7214,122769,2021-05-19 13:03:19:386
3.6951,-3.7854,-9.5599,1.4065,-1.7684,-9.5428,1.5872,-2.0777,-0.3821,0.4591,-1.7737,-0.7214,122769,2021-05-19 13:03:19:386
3.6951,-3.7854,-9.5599,1.4065,-1.7684,-9.5428,1.5872,-2.0777,-0.3821,0.4591,-1.7737,-0.7214,122769,2021-05-19 13:03:19:386
3.6951,-3.7854,-9.5599,1.4065,-1.7684,-9.5428,1.5872,-2.0777,-0.3821,0.4591,-1.7737,-0.7214,122769,2021-05-19 13:03:19:386
3.6951,-3.7854,-9.5599,1.4065,-1.7684,-9.5428,1.5872,-2.0777,-0.3821,0.4591,-1.7737,-0.7214,122769,2021-05-19 13:03:19:386
3.6951,-3.7854,-9.5599,1.4065,-1.7684,-9.5428,1.5872,-2.0777,-0.3821,0.4591,-1.7737,-0.7214,122770,2021-05-19 13:03:19:387
3.6951,-3.7854,-9.5599,1.4065,-1.7684,-9.5428,1.5872,-2.0777,-0.3821,0.4591,-1.7737,-0.7214,122770,2021-05-19 13:03:19:387
3.6951,-3.7854,-9.5599,1.4065,-1.7684,-9.5428,1.5872,-2.0777,-0.3821,0.4591,-1.7737,-0.7214,122770,2021-05-19 13:03:19:387
3.6951,-3.7854,-9.5599,1.4065,-1.7684,-9.5428,1.5872,-2.0777,-0.3821,0.4591,-1.7737,-0.7214,122770,2021-05-19 13:03:19:387
3.6951,-3.7854,-9.5599,1.4065,-1.7684,-9.5428,1.5872,-2.0777,-0.3821,0.4591,-1.7737,-0.7214,122770,2021-05-19 13:03:19:387
3.6951,-3.7854,-9.5599,1.4065,-1.7684,-9.5428,1.5872,-2.0777,-0.3821,0.4591,-1.7737,-0.7214,122770,2021-05-19 13:03:19:387
3.6951,-3.7854,-9.5599,1.4065,-1.7684,-9.5428,1.5872,-2.0777,-0.3821,0.4591,-1.7737,-0.7214,122770,2021-05-19 13:03:19:387
3.6951,-3.7854,-9.5599,1.4065,-1.7684,-9.5428,1.5872,-2.0777,-0.3821,0.4591,-1.7737,-0.7214,122771,2021-05-19 13:03:19:388
3.6951,-3.7854,-9.5599,1.4065,-1.7684,-9.5428,1.5872,-2.0777,-0.3821,0.4591,-1.7737,-0.7214,122771,2021-05-19 13:03:19:388
3.6951,-3.7854,-9.5599,1.4065,-1.7684,-9.5428,1.5872,-2.0777,-0.3821,0.4591,-1.7737,-0.7214,122773,2021-05-19 13:03:19:390
3.6951,-3.7854,-9.5599,1.4065,-1.7684,-9.5428,1.5872,-2.0777,-0.3821,0.4591,-1.7737,-0.7214,122774,2021-05-19 13:03:19:391
3.6951,-3.7854,-9.5599,1.4065,-1.7684,-9.5428,1.5872,-2.0777,-0.3821,0.4591,-1.7737,-0.7214,122774,2021-05-19 13:03:19:391
3.6951,-3.7854,-9.5599,1.4065,-1.7684,-9.5428,1.5872,-2.0777,-0.3821,0.4591,-1.7737,-0.7214,122774,2021-05-19 13:03:19:391
3.6951,-3.7854,-9.5599,1.4065,-1.7684,-9.5428,1.5872,-2.0777,-0.3821,0.4591,-1.7737,-0.7214,122774,2021-05-19 13:03:19:391
3.6951,-3.7854,-9.5599,1.4065,-1.7684,-9.5428,1.5872,-2.0777,-0.3821,0.4591,-1.7737,-0.7214,122774,2021-05-19 13:03:19:391
3.6951,-3.7854,-9.5599,1.4065,-1.7684,-9.5428,1.5872,-2.0777,-0.3821,0.4591,-1.7737,-0.7214,122774,2021-05-19 13:03:19:391
3.6951,-3.7854,-9.5599,1.4065,-1.7684,-9.5428,1.5872,-2.0777,-0.3821,0.4591,-1.7737,-0.7214,122775,2021-05-19 13:03:19:392
3.6951,-3.7854,-9.5599,1.4065,-1.7684,-9.5428,1.5872,-2.0777,-0.3821,0.4591,-1.7737,-0.7214,122775,2021-05-19 13:03:19:392
3.6951,-3.7854,-9.5599,1.4065,-1.7684,-9.5428,1.5872,-2.0777,-0.3821,0.4591,-1.7737,-0.7214,122775,2021-05-19 13:03:19:392
3.6951,-3.7854,-9.5599,1.4065,-1.7684,-9.5428,1.5872,-2.0777,-0.3821,0.4591,-1.7737,-0.7214,122775,2021-05-19 13:03:19:392
3.6951,-3.7854,-9.5599,1.4065,-1.7684,-9.5428,1.5872,-2.0777,-0.3821,0.4591,-1.7737,-0.7214,122775,2021-05-19 13:03:19:392
3.6951,-3.7854,-9.5599,1.4065,-1.7684,-9.5428,1.5872,-2.0777,-0.3821,0.4591,-1.7737,-0.7214,122775,2021-05-19 13:03:19:392
3.6951,-3.7854,-9.5599,1.4065,-1.7684,-9.5428,1.5872,-2.0777,-0.3821,0.4591,-1.7737,-0.7214,122775,2021-05-19 13:03:19:392
3.6951,-3.7854,-9.5599,1.4065,-1.7684,-9.5428,1.5872,-2.0777,-0.3821,0.4591,-1.7737,-0.7214,122776,2021-05-19 13:03:19:393
3.6951,-3.7854,-9.5599,1.4065,-1.7684,-9.5428,1.5872,-2.0777,-0.3821,0.4591,-1.7737,-0.7214,122776,2021-05-19 13:03:19:393
3.6951,-3.7854,-9.5599,1.4065,-1.7684,-9.5428,1.5872,-2.0777,-0.3821,0.4591,-1.7737,-0.7214,122776,2021-05-19 13:03:19:393
3.6951,-3.7854,-9.5599,1.4065,-1.7684,-9.5428,1.5872,-2.0777,-0.3821,0.4591,-1.7737,-0.7214,122776,2021-05-19 13:03:19:393
3.6951,-3.7854,-9.5599,1.4065,-1.7684,-9.5428,1.5872,-2.0777,-0.3821,0.4591,-1.7737,-0.7214,122776,2021-05-19 13:03:19:393
