ACCELEROMETER X (m/s²),ACCELEROMETER Y (m/s²),ACCELEROMETER Z (m/s²),GRAVITY X (m/s²),GRAVITY Y (m/s²),GRAVITY Z (m/s²),LINEAR ACCELERATION X (m/s²),LINEAR ACCELERATION Y (m/s²),LINEAR ACCELERATION Z (m/s²),GYROSCOPE X (rad/s),GYROSCOPE Y (rad/s),GYROSCOPE Z (rad/s),Time since start in ms ,YYYY-MO-DD HH-MI-SS_SSS
1.9261,-1.2629,10.8242,2.0881,0.7874,9.5494,-0.162,-2.0503,1.2748,-0.1886,-2.464,-0.2422,30,2021-08-07 02:32:55:526
10.7907,-3.3136,3.1316,8.3798,-3.842,3.3449,2.4109,0.5284,-0.2133,0.8163,-1.9038,2.4279,530,2021-08-07 02:32:56:026
5.0422,-5.2265,-5.2062,8.698,-4.4135,1.018,-3.6558,-0.8131,-6.2242,0.9201,-0.6943,0.0089,1030,2021-08-07 02:32:56:526
5.1499,-9.238,0.2801,5.4067,-8.1641,0.5345,-0.2568,-1.0739,-0.2544,-0.1587,-0.2313,0.6545,1529,2021-08-07 02:32:57:025
1.8387,-9.0836,0.0204,2.1633,-9.5601,0.3085,-0.194,0.1892,-0.2342,-0.0719,0.2025,-0.0351,2030,2021-08-07 02:32:57:526
0.2191,-9.9874,0.255,0.6453,-9.7739,0.4744,0.2911,0.088,0.0547,-0.2405,0.773,0.0437,2530,2021-08-07 02:32:58:026
2.0578,-8.8873,-1.1061,1.3882,-9.5178,-1.912,1.1989,-0.0884,-1.1774,-0.0438,0.6325,0.1426,3030,2021-08-07 02:32:58:526
-0.1401,-9.7312,-1.4497,-0.068,-9.6713,-1.6223,-0.1175,-0.0348,0.2791,0.1895,-0.4212,0.4004,3530,2021-08-07 02:32:59:026
-0.8236,-9.7552,-0.9744,-0.7893,-9.686,-1.3148,-0.0235,-0.0368,0.2159,0.0417,-0.4695,0.0382,4029,2021-08-07 02:32:59:525
-0.8942,-9.7636,-1.1325,-0.8633,-9.6908,-1.2299,-0.0405,-0.0763,-0.0032,-0.0115,0.0815,-0.0082,4530,2021-08-07 02:33:00:026
-0.8152,-9.8174,-1.4437,-0.7887,-9.6918,-1.2717,-0.0313,-0.1196,-0.1923,-0.0164,-0.0113,0.0125,5029,2021-08-07 02:33:00:525
-0.8356,-9.7659,-1.2953,-0.8261,-9.6822,-1.3204,-0.0095,-0.1484,-0.0203,-0.006,0.0088,-0.0082,5530,2021-08-07 02:33:01:026
-0.7554,-9.7743,-1.4305,-0.7242,-9.6818,-1.3818,-0.0097,-0.1189,-0.0236,-0.006,0.0094,-0.0107,6030,2021-08-07 02:33:01:526
-0.7757,-9.7636,-1.3515,-0.7756,-9.6833,-1.3423,-0.0049,-0.0874,0.0338,0.0105,-0.0394,0.0125,6529,2021-08-07 02:33:02:025
-0.7673,-9.7791,-1.3396,-0.7638,-9.6839,-1.3452,0.0036,-0.094,-0.0099,-0.0035,0.0198,-0.004,7030,2021-08-07 02:33:02:526
-0.7805,-9.7935,-1.403,-0.773,-9.6809,-1.361,-0.0118,-0.1257,-0.0698,0.0178,-0.0924,0.023,7529,2021-08-07 02:33:03:025
-0.8224,-9.7803,-1.3599,-0.8031,-9.685,-1.3139,-0.0099,-0.0997,0.0121,0.0038,-0.016,0.0108,8031,2021-08-07 02:33:03:527
-0.9349,-9.7624,-1.2989,-0.9263,-9.6751,-1.306,-0.0033,-0.075,0.057,-0.0103,0.0634,0.0212,8530,2021-08-07 02:33:04:026
-0.9864,-9.7516,-1.2929,-0.9794,-9.6708,-1.299,-0.0133,-0.09,0.0747,-0.0048,0.0561,-0.0038,9030,2021-08-07 02:33:04:526
-0.99,-9.6953,-1.1325,-1.0249,-9.6666,-1.2949,-2.00E-04,-0.0882,0.031,-0.0023,0.0231,-0.002,9529,2021-08-07 02:33:05:025
-0.9409,-9.7863,-1.4557,-0.9275,-9.6678,-1.3576,-0.0032,-0.0841,-0.0435,-0.0066,0.0854,-0.0289,10029,2021-08-07 02:33:05:525
-0.9325,-9.7552,-1.2905,-0.9219,-9.6745,-1.3133,-0.0084,-0.0923,-0.0829,-0.0121,0.0365,-2.00E-04,10530,2021-08-07 02:33:06:026
-0.9409,-9.7755,-1.4042,-0.9294,-9.6686,-1.3511,-0.0038,-0.1067,0.0237,-0.0103,-0.0148,0.0078,11029,2021-08-07 02:33:06:525
-0.9002,-9.7671,-1.3396,-0.8794,-9.6675,-1.3914,-0.0038,-0.109,0.0706,-0.0145,0.0921,-0.0295,11529,2021-08-07 02:33:07:025
-0.8104,-9.7695,-1.5419,-0.8033,-9.6593,-1.491,5.00E-04,-0.1118,-0.0187,-0.0103,0.0622,0.0145,12030,2021-08-07 02:33:07:526
-0.8739,-9.7312,-1.4473,-0.8759,-9.6507,-1.5057,-0.0035,-0.061,0.1213,0.0184,-0.1522,0.0292,12529,2021-08-07 02:33:08:025
-0.8607,-9.7336,-1.5263,-0.8461,-9.651,-1.5208,-0.0139,-0.0979,-0.0193,-0.0145,0.0561,0.0035,13029,2021-08-07 02:33:08:525
-0.8811,-9.7456,-1.5598,-0.8755,-9.6509,-1.5048,-0.0076,-0.0943,-0.0564,7.00E-04,-7.00E-04,0.0065,13529,2021-08-07 02:33:09:025
-0.8942,-9.7121,-1.5143,-0.8777,-9.6501,-1.5087,-0.0109,-0.0626,-0.0053,-0.0042,0.0103,-0.0191,14029,2021-08-07 02:33:09:525
-0.8344,-9.754,-1.5562,-0.837,-9.6507,-1.5276,1.00E-04,-0.1036,-0.025,0.0062,-0.0386,0.0035,14530,2021-08-07 02:33:10:026
-0.8691,-9.736,-1.4473,-0.8618,-9.6484,-1.5284,0.0011,-0.0881,0.0794,-0.0048,-0.0145,0.014,15030,2021-08-07 02:33:10:526
-0.6907,-9.6845,-1.3443,-0.8304,-9.6538,-1.5113,0.0386,-0.0204,0.1529,-0.0139,0.6147,-0.1864,15530,2021-08-07 02:33:11:026
0.3579,-9.7145,-2.1093,0.31,-9.6636,-1.64,-0.0087,-0.054,-0.4629,0.0429,0.0673,-0.0587,16029,2021-08-07 02:33:11:525
0.9756,-9.9778,-0.8428,0.6246,-9.7722,-0.534,0.3515,-0.209,-0.251,0.2194,-0.2607,0.0207,16529,2021-08-07 02:33:12:025
1.1803,-9.7803,-0.2179,0.8117,-9.7709,-0.2036,0.3446,-0.0115,-0.0105,-0.0573,0.1644,0.1099,17029,2021-08-07 02:33:12:525
0.0048,-9.7648,-0.7542,0.729,-9.7211,-1.0672,-0.8399,-0.0392,0.1793,-0.2161,-0.1172,0.1795,17530,2021-08-07 02:33:13:026
0.2251,-9.335,-1.142,-0.3557,-9.7438,-1.0503,0.6678,0.4128,-0.1649,0.1235,-0.0384,0.1722,18029,2021-08-07 02:33:13:525
-0.9062,-9.8043,-1.154,-0.8422,-9.7353,-0.8282,-0.0564,-0.069,-0.334,0.0288,-0.0707,0.036,18529,2021-08-07 02:33:14:025
-1.1349,-9.8043,-0.7063,-0.8587,-9.7423,-0.7219,-0.2538,-0.0653,0.0326,0.0178,-0.0842,0.0311,19030,2021-08-07 02:33:14:526
-0.7733,-9.8031,-0.6452,-0.8839,-9.7428,-0.6841,0.1361,-0.0336,0.0629,0.0038,-0.0176,0.0445,19530,2021-08-07 02:33:15:026
-0.7901,-9.9575,-0.48,-0.8621,-9.75,-0.6043,-0.0312,-0.0711,-0.0494,0.0197,-0.0738,-0.0019,20029,2021-08-07 02:33:15:525
-1.0211,-9.7851,-0.5483,-0.9012,-9.7495,-0.5529,-0.12,-0.0356,0.0046,0.0142,0.002,0.0262,20529,2021-08-07 02:33:16:025
-0.8535,-9.9036,-0.4956,-0.9376,-9.7469,-0.5382,0.0841,-0.1567,0.0426,-0.0103,-0.006,0.0109,21030,2021-08-07 02:33:16:526
-0.7745,-9.8904,-0.7003,-0.9107,-9.7485,-0.5539,0.1362,-0.1419,-0.1464,-0.0249,-0.0304,-1.00E-04,21530,2021-08-07 02:33:17:026
-1.1875,-9.9695,-0.5279,-0.9123,-9.7487,-0.5493,-0.1168,-0.2118,-0.088,0.0154,-0.0158,0.0109,22029,2021-08-07 02:33:17:525
-0.9816,-9.7241,-0.4202,-0.9119,-9.7489,-0.545,-0.0697,0.0249,0.1248,-0.0078,-0.0194,-0.0123,22530,2021-08-07 02:33:18:026
-1.0307,-9.9,-0.5423,-0.9404,-9.7466,-0.5381,-0.0903,-0.1534,-0.0042,0.0044,0.0392,-0.0068,23030,2021-08-07 02:33:18:526
-0.8092,-9.8294,-0.504,-0.9323,-9.7464,-0.5559,0.123,-0.083,0.0519,-0.0103,0.0429,-0.0019,23529,2021-08-07 02:33:19:025
-0.4956,-9.7815,-0.401,-0.8146,-9.7529,-0.6235,0.319,-0.0287,0.2224,-0.0261,0.0099,-0.0202,24029,2021-08-07 02:33:19:525
-0.5411,-9.8617,-0.9421,-0.4873,-9.7525,-0.9069,-0.0537,-0.1093,-0.0352,-0.0933,0.0142,-0.0966,24529,2021-08-07 02:33:20:025
0.2406,-9.7348,-1.2881,0.2203,-9.7095,-1.3591,0.0204,-0.0253,0.0711,-0.0921,1.00E-04,-0.1363,25030,2021-08-07 02:33:20:526
0.4262,-9.7061,-1.6771,0.7502,-9.6492,-1.5812,-0.3241,-0.0569,-0.096,-0.0842,0.3587,-0.0416,25530,2021-08-07 02:33:21:026
0.158,-9.8402,-1.6376,0.5254,-9.6726,-1.5283,-0.3674,-0.1676,-0.1093,0.0178,0.5921,0.1551,26030,2021-08-07 02:33:21:526
-0.0156,-9.8246,-1.8974,0.2462,-9.7008,-1.4157,-0.2618,-0.1238,-0.4817,-0.0487,-0.1514,-0.0935,26529,2021-08-07 02:33:22:025
-0.0563,-9.6726,-1.6508,0.2907,-9.6604,-1.6618,-0.347,-0.0121,0.011,-0.0536,0.0233,-0.0862,27029,2021-08-07 02:33:22:525
0.6632,-9.5924,-1.5682,0.5336,-9.6376,-1.7329,0.1296,0.0452,0.1647,-0.0145,-0.0701,-0.0599,27530,2021-08-07 02:33:23:026
0.6285,-9.6953,-1.9237,0.6199,-9.6057,-1.8752,0.0086,-0.0896,-0.0485,-0.0151,0.0215,-0.0276,28030,2021-08-07 02:33:23:526
0.8859,-9.6426,-1.8651,0.6834,-9.5855,-1.955,0.2025,-0.0572,0.0899,-0.0213,0.0123,0.0274,28529,2021-08-07 02:33:24:025
0.5866,-9.6067,-1.8866,0.627,-9.5991,-1.9063,-0.0404,-0.0076,0.0196,0.0099,0.0081,-0.0019,29029,2021-08-07 02:33:24:525
0.6871,-9.7456,-1.8986,0.6148,-9.5981,-1.9156,0.0724,-0.1475,0.017,-0.0194,7.00E-04,-0.0215,29530,2021-08-07 02:33:25:026
0.5638,-9.7432,-1.9094,0.6174,-9.5929,-1.9403,-0.0536,-0.1503,0.031,-0.0158,0.0246,-7.00E-04,30030,2021-08-07 02:33:25:526
0.7075,-9.6055,-1.7885,0.6264,-9.5789,-2.0058,0.081,-0.0267,0.2173,0.0093,-0.0384,0.014,30529,2021-08-07 02:33:26:025
0.644,-9.7097,-1.9728,0.6607,-9.5902,-1.9398,-0.0166,-0.1195,-0.0331,0.0111,0.0191,-0.0318,31029,2021-08-07 02:33:26:525
0.6141,-9.7001,-1.8375,0.5872,-9.6022,-1.9036,0.0269,-0.0979,0.066,-0.0066,-0.0353,0.0018,31530,2021-08-07 02:33:27:026
0.6033,-9.6163,-1.9046,0.608,-9.5947,-1.9344,-0.0047,-0.0216,0.0298,-0.0151,0.013,-0.019,32029,2021-08-07 02:33:27:525
0.6991,-9.7241,-1.9872,0.6431,-9.5933,-1.93,0.056,-0.1307,-0.0572,0.0075,0.0062,-7.00E-04,32529,2021-08-07 02:33:28:025
0.7242,-9.6666,-2.0207,0.7093,-9.5796,-1.9744,0.0149,-0.087,-0.0463,-0.02,-0.0213,0.0164,33030,2021-08-07 02:33:28:526
0.9014,-9.6343,-2.1428,0.6855,-9.5803,-1.9793,0.2159,-0.0539,-0.1635,-0.0213,0.002,0.003,33529,2021-08-07 02:33:29:025
0.8116,-9.6893,-2.1524,0.7003,-9.5765,-1.9927,0.1113,-0.1128,-0.1597,-0.0188,-0.0121,0.014,34029,2021-08-07 02:33:29:525
1.0247,-9.505,-1.8663,0.6702,-9.5773,-1.9991,0.3545,0.0723,0.1328,-0.0041,-0.0231,0.0176,34530,2021-08-07 02:33:30:026
0.7757,-9.6007,-1.98,0.691,-9.5801,-1.9787,0.0847,-0.0207,-0.0013,0.016,-0.0561,0.0011,35030,2021-08-07 02:33:30:526
0.5543,-9.6893,-2.0925,0.7341,-9.5781,-1.9728,-0.1798,-0.1112,-0.1198,0.0368,-0.0787,-0.0251,35530,2021-08-07 02:33:31:026
0.7542,-9.7229,-1.9082,0.6593,-9.5899,-1.9415,0.0949,-0.1329,0.0333,0.0105,-0.0304,-0.0312,36029,2021-08-07 02:33:31:525
0.9266,-9.6546,-1.9178,0.7065,-9.5815,-1.9663,0.2201,-0.0731,0.0485,0.0276,-0.0964,-0.0361,36529,2021-08-07 02:33:32:025
1.0187,-9.6774,-1.9992,0.6508,-9.5882,-1.953,0.368,-0.0892,-0.0462,-0.0237,0.0472,-0.008,37030,2021-08-07 02:33:32:526
0.6776,-9.6929,-1.9896,0.714,-9.5816,-1.963,-0.0365,-0.1113,-0.0266,-0.0084,0.0575,-0.0019,37531,2021-08-07 02:33:33:027
0.826,-9.6414,-2.0698,0.751,-9.5734,-1.9893,0.075,-0.0681,-0.0805,-0.0115,-0.0469,0.0189,38029,2021-08-07 02:33:33:525
0.9912,-9.6833,-1.9573,0.6961,-9.5809,-1.973,-0.1275,-0.0378,-0.116,0.0026,0.0123,-0.0074,38529,2021-08-07 02:33:34:025
0.6776,-9.6642,-2.0363,0.6747,-9.5886,-1.9424,-0.1635,-0.1007,-0.0328,-0.0017,0.0649,0.025,39030,2021-08-07 02:33:34:526
0.6404,-9.6606,-1.9453,0.6673,-9.5892,-1.9424,0.0486,-0.1289,-0.1046,0.0154,0.002,0.003,39529,2021-08-07 02:33:35:025
0.6572,-9.6905,-1.968,0.6911,-9.5839,-1.9602,-0.0148,-0.1031,-0.015,0.0026,-0.006,0.003,40029,2021-08-07 02:33:35:525
0.9732,-9.657,-2.0087,0.7231,-9.5793,-1.9709,0.061,1.00E-04,-0.0702,0.013,-0.0677,-0.0129,40530,2021-08-07 02:33:36:026
1.0008,-9.59,-1.8387,0.6862,-9.5841,-1.9605,0.2476,-0.1052,0.014,-0.02,-0.0017,0.0158,41030,2021-08-07 02:33:36:526
0.7673,-9.669,-1.8256,0.6294,-9.5936,-1.9333,-0.0643,-0.1305,0.0156,-0.0151,0.0734,0.0054,41531,2021-08-07 02:33:37:027
0.5219,-9.7348,-2.0004,0.7252,-9.5789,-1.972,-0.1219,-0.0518,-0.1301,-0.0219,-0.0274,0.0042,42030,2021-08-07 02:33:37:526
0.6883,-9.7157,-1.9956,0.72,-9.5798,-1.9697,-0.2412,-0.1383,0.0053,-0.0243,-0.0194,-0.0111,42529,2021-08-07 02:33:38:025
0.7901,-9.6115,-1.9381,0.7565,-9.5757,-1.9758,0.3364,-0.0957,-0.0796,-0.006,-0.0359,0.039,43029,2021-08-07 02:33:38:525
0.7638,-9.5888,-2.0435,0.7406,-9.5765,-1.9779,0.0447,-0.0673,-0.1206,0.0099,-0.0561,0.003,43530,2021-08-07 02:33:39:026
1.069,-9.584,-1.8854,0.6921,-9.5841,-1.9585,0.1231,-0.1136,-0.1771,-0.0298,-0.0103,0.0195,44030,2021-08-07 02:33:39:526
0.9541,-9.6271,-1.913,0.7055,-9.5812,-1.9679,0.1373,-0.059,-0.0755,-0.0261,0.0105,0.0018,44530,2021-08-07 02:33:40:026
0.759,-9.7252,-2.1727,0.757,-9.5756,-1.9763,0.2126,0.0383,0.0131,0.0288,0.0294,-0.0471,45029,2021-08-07 02:33:40:525
0.7458,-9.7025,-2.0219,0.7288,-9.5775,-1.9778,-0.0405,-0.0808,-0.0297,0.0136,-0.009,0.0103,45529,2021-08-07 02:33:41:025
0.674,-9.657,-1.9237,0.7275,-9.5808,-1.9619,-0.0799,-0.1241,-0.0768,0.0068,-0.02,-0.008,46030,2021-08-07 02:33:41:526
1.1887,-9.5804,-1.9309,0.7891,-9.5704,-1.9889,0.4774,0.0247,0.0077,-0.0237,0.0123,0.0121,46530,2021-08-07 02:33:42:026
1.1528,-9.5792,-1.7789,0.6979,-9.5869,-1.9427,0.1401,-0.0641,0.0919,-0.02,0.0032,0.0201,47030,2021-08-07 02:33:42:526
0.8033,-9.7348,-2.0075,0.7564,-9.5773,-1.9682,0.0301,-0.0989,-0.1363,-0.0096,-0.0549,0.0042,47529,2021-08-07 02:33:43:025
0.8332,-9.6103,-2.0865,0.8147,-9.5558,-2.0476,0.2196,-0.0341,-0.0186,-0.0213,-0.02,5.00E-04,48029,2021-08-07 02:33:43:525
0.8703,-9.5936,-2.0039,0.7733,-9.5629,-2.0304,0.0479,-0.0761,0.0349,-0.0011,-0.0145,-0.0056,48530,2021-08-07 02:33:44:026
0.8021,-9.6379,-2.0339,0.7549,-9.5637,-2.0337,0.04,-0.1113,0.0429,-0.0041,0.013,-0.0013,49030,2021-08-07 02:33:44:526
0.9864,-9.6259,-2.0901,0.7164,-9.5722,-2.0074,0.2388,-0.0609,-0.1031,0.0123,-0.0206,0.0237,49529,2021-08-07 02:33:45:025
0.9529,-9.6355,-2.0387,0.7492,-9.5705,-2.0036,0.0408,-0.0736,-0.0615,0.0081,-0.042,-0.0062,50030,2021-08-07 02:33:45:526
0.723,-9.7013,-1.9644,0.7292,-9.5755,-1.9871,0.0445,-0.116,-0.0058,7.00E-04,0.0044,-0.0111,50529,2021-08-07 02:33:46:025
0.7171,-9.7109,-1.98,0.7396,-9.5773,-1.9744,-0.0388,-0.1372,0.0056,0.0282,-0.0891,0.0109,51029,2021-08-07 02:33:46:525
0.6369,-9.6738,-2.1213,0.7329,-9.5806,-1.9611,-0.0953,-0.0923,-0.1641,0.013,-0.0506,-0.0092,51530,2021-08-07 02:33:47:026
0.5423,-9.6582,-2.0913,0.7209,-9.5812,-1.9623,-0.179,-0.0762,-0.1329,-0.0017,0.0704,-1.00E-04,52030,2021-08-07 02:33:47:526
0.6895,-9.76,-2.0351,0.6592,-9.5898,-1.9422,0.013,-0.1715,-0.0925,-0.0035,0.0197,0.0525,52529,2021-08-07 02:33:48:025
0.6823,-9.6498,-1.9632,0.7016,-9.5871,-1.9406,-0.0226,-0.0627,-0.0242,-0.0029,-0.0176,0.0024,53029,2021-08-07 02:33:48:525
0.6404,-9.6594,-1.9776,0.7352,-9.5772,-1.9768,-0.0966,-0.0804,-0.0103,-0.0017,-0.0145,0.0011,53529,2021-08-07 02:33:49:025
0.7266,-9.6115,-2.0171,0.7424,-9.5771,-1.9742,-0.0234,-0.0345,-0.045,-0.0096,0.0252,-0.0166,54032,2021-08-07 02:33:49:528
0.7925,-9.6103,-2.0758,0.7321,-9.5754,-1.9865,0.0578,-0.0356,-0.0868,-0.0035,0.0044,0.0048,54530,2021-08-07 02:33:50:026
0.5507,-9.6953,-1.9429,0.7914,-9.5649,-2.0141,-0.2238,-0.1302,0.0765,-0.0023,-0.028,0.0091,55030,2021-08-07 02:33:50:526
0.8942,-9.6115,-1.9992,0.7992,-9.559,-2.0389,0.1061,-0.0524,0.0434,0.0105,-5.00E-04,-0.0092,55529,2021-08-07 02:33:51:025
0.7685,-9.6893,-2.0638,0.8,-9.5536,-2.0636,-0.0343,-0.1357,-0.0014,-0.0041,-0.0084,0.0024,56030,2021-08-07 02:33:51:526
0.7482,-9.6989,-1.9692,0.821,-9.5524,-2.0612,-0.0728,-0.1465,0.0919,-0.009,0.0319,0.0036,56530,2021-08-07 02:33:52:026
0.8571,-9.6163,-2.0099,0.8534,-9.5606,-2.0091,-0.0142,-0.0473,-0.0751,0.005,-0.0298,-0.0031,57029,2021-08-07 02:33:52:525
0.8823,-9.6534,-2.1308,0.8068,-9.562,-2.0219,0.2754,-0.0076,-0.0348,0.0105,-0.0231,0.0011,57530,2021-08-07 02:33:53:026
1.0175,-9.6271,-2.059,0.7726,-9.5601,-2.0441,0.0822,-0.1723,-0.0436,-0.0396,0.0453,0.0268,58030,2021-08-07 02:33:53:526
1.4186,-9.4583,-1.9477,0.7863,-9.5589,-2.0444,0.6322,0.1006,0.0968,0.0252,-0.0726,0.0176,58529,2021-08-07 02:33:54:025
0.5279,-9.7157,-2.0303,0.8612,-9.5633,-1.9929,-0.2787,-0.2003,-0.0605,0.0062,-0.0622,0.0195,59029,2021-08-07 02:33:54:525
0.7506,-9.7396,-2.2565,0.9009,-9.5581,-2.0006,-0.1591,-0.1784,-0.2753,-0.0133,-0.0365,-0.0111,59530,2021-08-07 02:33:55:026
0.9361,-9.6115,-2.2948,0.8806,-9.5531,-2.0329,0.1154,-0.1111,-0.1506,0.0172,-0.0591,0.0176,60029,2021-08-07 02:33:55:525
0.6668,-9.6522,-2.3619,0.865,-9.5507,-2.0511,-0.6136,-0.238,-0.0822,0.0191,-0.0622,-0.0331,60530,2021-08-07 02:33:56:026
0.6393,-9.7157,-2.2913,0.9148,-9.5392,-2.0828,-0.5868,-0.0987,0.0405,0.0294,-0.0958,-0.0367,61029,2021-08-07 02:33:56:525
0.6177,-9.6594,-2.3128,0.9606,-9.536,-2.0768,-0.7882,-0.2815,-0.1558,0.0692,-0.0994,-0.0398,61529,2021-08-07 02:33:57:025
0.4752,-9.7408,-2.0327,0.922,-9.5386,-2.0823,-0.6299,-0.2274,-0.1156,0.0545,-0.0475,-0.0465,62030,2021-08-07 02:33:57:526
1.1349,-9.6259,-2.15,0.9185,-9.5292,-2.1263,0.1099,-0.1039,0.0063,0.0044,-0.1459,0.003,62529,2021-08-07 02:33:58:025
1.2019,-9.6007,-2.0746,0.9053,-9.5314,-2.1219,-0.1295,-0.1627,0.0114,-0.0451,0.0032,0.0299,63029,2021-08-07 02:33:58:525
0.9697,-9.4475,-2.2709,0.9485,-9.5257,-2.1289,-0.1201,-0.1984,-0.4006,-0.0139,-0.0481,-0.0019,63530,2021-08-07 02:33:59:026
1.0726,-9.6259,-2.1057,0.9303,-9.523,-2.1488,0.4153,-0.1304,0.0192,-0.0261,0.0362,0.0189,64030,2021-08-07 02:33:59:526
0.753,-9.5852,-2.1189,0.8981,-9.5331,-2.1174,0.1039,-0.0724,-0.0182,0.0154,-0.0145,0.0091,64529,2021-08-07 02:34:00:025
0.6105,-9.7695,-2.1141,0.8884,-9.539,-2.0949,-0.4598,-0.1444,-0.0467,0.0331,-0.064,-0.0282,65030,2021-08-07 02:34:00:526
0.1353,-9.6726,-2.0195,0.8793,-9.5437,-2.0773,-0.4735,-0.2534,-0.1517,-0.0176,0.0783,-0.027,65530,2021-08-07 02:34:01:026
0.905,-9.7372,-2.1679,0.9652,-9.5308,-2.098,0.05,-0.0675,0.0354,-5.00E-04,-0.0518,0.0042,66029,2021-08-07 02:34:01:525
1.0008,-9.6738,-2.1859,0.9713,-9.5213,-2.1381,0.0749,-0.077,0.0838,-0.0103,0.0215,0.0066,66530,2021-08-07 02:34:02:026
0.8523,-9.6582,-2.0542,0.9446,-9.5442,-2.046,-0.2659,-0.0721,-0.0142,0.0227,0.0044,0.0066,67030,2021-08-07 02:34:02:526
0.6177,-9.7145,-2.1679,0.9154,-9.549,-2.0369,-0.2654,-0.0901,-0.131,0.0294,0.0013,-0.0392,67530,2021-08-07 02:34:03:026
0.9278,-9.6869,-2.1512,0.9611,-9.5375,-2.0697,-0.1447,-0.0561,-0.054,-0.0164,-0.0035,-0.0184,68029,2021-08-07 02:34:03:525
0.662,-9.681,-1.9465,0.893,-9.5485,-2.0492,-0.1975,-0.0606,-0.023,-0.0023,0.0808,-0.0276,68529,2021-08-07 02:34:04:025
0.4884,-9.669,-2.0039,0.8439,-9.5547,-2.0412,0.0408,-0.1742,0.1067,-0.0206,0.0209,0.0366,69029,2021-08-07 02:34:04:525
0.6608,-9.7217,-2.0207,0.8707,-9.5571,-2.0185,-0.0076,-0.1382,0.1438,-0.0078,0.0307,0.0268,69529,2021-08-07 02:34:05:025
0.9337,-9.5984,-1.737,0.5757,-9.6324,-1.7478,0.1689,-0.0772,-0.1747,0.0075,0.1272,0.0781,70030,2021-08-07 02:34:05:526
0.1257,-9.742,-1.6328,0.4524,-9.6649,-1.5986,-0.3686,-0.3213,0.0399,0.0423,0.013,0.0097,70530,2021-08-07 02:34:06:026
0.334,-9.8294,-1.6316,0.3993,-9.6817,-1.5085,-0.1372,0.0379,-0.0633,-0.017,0.1321,-0.0129,71029,2021-08-07 02:34:06:525
0.7015,-9.8282,-1.646,0.4165,-9.6732,-1.5574,0.1413,-0.07,0.0419,-0.0487,-0.028,-0.041,71530,2021-08-07 02:34:07:026
0.6404,-9.7097,-1.8076,0.5074,-9.6418,-1.7173,0.2001,-0.0392,-0.1573,-0.0316,7.00E-04,-0.0196,72030,2021-08-07 02:34:07:526
0.3711,-9.748,-1.7873,0.5016,-9.6292,-1.7883,0.1485,-0.0566,0.0274,-0.0103,-0.0176,-0.0202,72529,2021-08-07 02:34:08:025
0.6991,-9.6929,-1.9201,0.6334,-9.6064,-1.8669,0.0286,-0.1344,-6.00E-04,-0.0225,0.0533,-0.0282,73030,2021-08-07 02:34:08:526
0.7111,-9.6522,-2.0458,0.7366,-9.5859,-1.9335,-0.0256,-0.0663,-0.1124,0.0197,-0.0268,-0.0147,73529,2021-08-07 02:34:09:025
0.7997,-9.6211,-1.8591,0.7546,-9.5862,-1.9251,0.015,-0.0761,0.0325,-0.0017,-0.0097,-0.0025,74029,2021-08-07 02:34:09:525
0.7781,-9.6594,-1.9597,0.7572,-9.5882,-1.9138,0.0224,-0.0692,-0.0501,-0.0072,-0.0097,0.0018,74530,2021-08-07 02:34:10:026
0.7602,-9.6845,-2.0518,0.7744,-9.5798,-1.9487,-0.0133,-0.0283,-0.0065,-0.0029,-0.0145,-0.0025,75030,2021-08-07 02:34:10:526
0.8428,-9.6833,-2.0674,0.7792,-9.5708,-1.991,0.0575,-0.0742,-0.1034,0.0111,-0.0585,0.0146,75530,2021-08-07 02:34:11:026
0.6895,-9.681,-1.9836,0.7319,-9.5774,-1.9771,-0.0666,-0.1497,-0.1012,-5.00E-04,-0.0145,0.0066,76030,2021-08-07 02:34:11:526
0.8404,-9.6893,-1.9549,0.7264,-9.5778,-1.9768,0.0701,-0.0401,0.0902,7.00E-04,-0.006,0.014,76529,2021-08-07 02:34:12:025
0.8009,-9.7061,-2.0482,0.7729,-9.575,-1.9731,0.0854,-0.0921,0.0369,-0.0096,-0.0378,0.0011,77029,2021-08-07 02:34:12:525
0.6955,-9.7432,-2.1332,0.8153,-9.5628,-2.0148,-0.1528,-0.0708,-0.0798,0.005,-0.0084,-0.0111,77530,2021-08-07 02:34:13:026
0.8571,-9.6259,-2.211,0.8545,-9.5491,-2.0628,-0.1204,-0.1166,-0.0634,-0.0072,-0.0133,-0.0166,78029,2021-08-07 02:34:13:525
0.7817,-9.651,-2.0877,0.8601,-9.5524,-2.0453,-0.1276,-0.0825,0.0026,0.0209,-0.017,-0.0184,78530,2021-08-07 02:34:14:026
0.8727,-9.5804,-2.0674,0.8562,-9.5529,-2.0444,-0.0568,-0.128,0.0288,0.0014,-0.0109,0.0146,79029,2021-08-07 02:34:14:525
1.1349,-9.6055,-2.1129,0.8183,-9.5524,-2.0619,0.2272,0.0292,0.0916,-0.0261,-0.0549,0.0256,79529,2021-08-07 02:34:15:025
0.7518,-9.6474,-2.0853,0.8539,-9.548,-2.068,-0.0154,-0.1473,-0.075,-0.02,0.0142,-0.0227,80029,2021-08-07 02:34:15:525
0.9062,-9.669,-2.1404,0.8545,-9.5498,-2.0593,-0.1218,-0.1334,-0.0083,0.0044,-0.0103,0.0097,80530,2021-08-07 02:34:16:026
0.8966,-9.7193,-2.1751,0.831,-9.5554,-2.0431,-0.0362,-0.0494,-0.0323,0.0136,-0.0286,0.0134,81029,2021-08-07 02:34:16:525
0.8906,-9.6079,-2.0997,0.8129,-9.5577,-2.0395,0.095,-0.0642,-0.0669,0.0136,-0.0225,0.0079,81530,2021-08-07 02:34:17:026
0.7602,-9.6546,-2.1237,0.8218,-9.5597,-2.0265,0.1101,-0.0897,-0.0135,0.0068,-0.0017,-0.0044,82029,2021-08-07 02:34:17:525
0.7865,-9.675,-2.0087,0.8154,-9.5576,-2.039,0.0173,-0.0744,-0.0461,1.00E-04,-0.0054,-0.0037,82530,2021-08-07 02:34:18:026
0.9337,-9.6726,-2.1045,0.8402,-9.5523,-2.0536,0.0855,0.0012,0.0377,-0.0017,-0.0628,5.00E-04,83029,2021-08-07 02:34:18:525
0.8655,-9.6905,-2.0578,0.8407,-9.5501,-2.0636,0.0758,-0.0712,-0.0575,0.0056,-0.0066,-0.0019,83529,2021-08-07 02:34:19:025
0.8823,-9.6953,-1.9357,0.8253,-9.558,-2.0331,0.0225,-0.0727,0.0156,1.00E-04,-0.0158,-7.00E-04,84031,2021-08-07 02:34:19:527
1.0355,-9.6869,-2.047,0.8505,-9.5579,-2.0231,-0.1491,-0.0941,-0.0488,-0.0048,-0.017,0.0109,84529,2021-08-07 02:34:20:025
0.8906,-9.7061,-2.1213,0.842,-9.5585,-2.0242,0.1008,-0.1068,0.0609,-0.0023,-0.028,0.014,85030,2021-08-07 02:34:20:526
0.8056,-9.6355,-2.0267,0.8008,-9.5586,-2.04,0.093,-0.0534,0.0359,-0.0213,-0.0274,0.0146,85529,2021-08-07 02:34:21:025
0.9242,-9.6283,-2.1907,0.8575,-9.5447,-2.0819,0.0713,-0.0815,-0.1166,-0.0011,-0.0237,0.0018,86029,2021-08-07 02:34:21:525
0.8392,-9.6498,-1.8806,0.8596,-9.5502,-2.0556,-0.0978,-0.1809,0.1998,-0.0072,0.0233,-0.0056,86530,2021-08-07 02:34:22:026
1.069,-9.578,-2.077,0.8516,-9.5596,-2.0148,0.137,-0.0176,-0.0213,0.0032,0.0172,0.0146,87030,2021-08-07 02:34:22:526
0.9098,-9.6307,-2.0542,0.882,-9.5574,-2.0119,0.0281,-0.0734,-0.0413,0.0081,0.0343,0.006,87529,2021-08-07 02:34:23:025
0.9625,-9.6355,-2.0746,0.8989,-9.5584,-2,-0.0442,-0.0927,-0.089,-0.0035,0.0032,0.0018,88029,2021-08-07 02:34:23:525
0.8368,-9.6678,-2.2134,0.8877,-9.5595,-1.9996,-0.0498,-0.1091,-0.2096,0.0185,-0.0243,-0.0086,88529,2021-08-07 02:34:24:025
0.7733,-9.7025,-2.0279,0.9087,-9.5554,-2.0099,0.0068,-0.1213,-0.0131,0.0032,0.0227,0.0024,89030,2021-08-07 02:34:24:526
0.7458,-9.6522,-2.0243,0.8954,-9.5565,-2.0105,-0.1526,-0.0874,0.0219,-0.0078,0.0453,-0.0037,89530,2021-08-07 02:34:25:026
0.9337,-9.7312,-2.1679,0.9118,-9.5505,-2.0313,-0.0381,-0.026,0.0326,0.0068,-0.0292,-0.0025,90030,2021-08-07 02:34:25:526
0.8272,-9.6307,-1.9944,0.9116,-9.5492,-2.0376,0.1375,-0.0498,-0.0696,0.0062,-0.0182,0.0121,90529,2021-08-07 02:34:26:025
0.9349,-9.6031,-2.1392,0.9044,-9.5457,-2.0573,0.1657,-0.1279,-0.0948,-0.0109,-0.0231,-0.0037,91029,2021-08-07 02:34:26:525
0.6596,-9.6762,-2.1153,0.9321,-9.537,-2.0849,0.1215,-0.1054,0.046,-0.0023,-0.0384,-0.0019,91530,2021-08-07 02:34:27:026
0.7506,-9.6546,-2.1177,0.9226,-9.539,-2.0801,0.1439,-0.1184,-0.0378,0.0178,-0.0298,0.0079,92029,2021-08-07 02:34:27:525
0.7254,-9.7025,-2.1153,0.9131,-9.5464,-2.0502,-0.1146,-0.1168,-0.1442,-0.0121,-0.0213,-0.0037,92529,2021-08-07 02:34:28:025
1.0427,-9.6379,-2.2003,0.9279,-9.5441,-2.054,0.0204,-0.0616,-0.0106,0.002,7.00E-04,0.0066,93030,2021-08-07 02:34:28:526
1.0331,-9.6115,-2.2242,0.9272,-9.5454,-2.0485,-0.0678,-0.0935,-0.0259,-0.0158,-0.0243,-0.0056,93529,2021-08-07 02:34:29:025
0.8296,-9.5948,-2.0051,0.9466,-9.5442,-2.0451,-0.054,-0.1232,0.0341,0.0014,-0.0133,0.006,94029,2021-08-07 02:34:29:525
0.9553,-9.6486,-2.1847,0.9264,-9.5485,-2.0342,-0.04,-0.0451,-0.144,0.0105,-0.0549,0.003,94530,2021-08-07 02:34:30:026
0.9433,-9.6486,-2.0518,0.92,-9.546,-2.0489,-0.013,-0.1234,-0.0491,-0.0109,-0.0158,-0.0031,95030,2021-08-07 02:34:30:526
1.0247,-9.6223,-2.047,0.9114,-9.5459,-2.0534,0.1125,-0.0766,0.0066,-0.0017,-0.0151,0.0036,95530,2021-08-07 02:34:31:026
0.9541,-9.663,-2.1165,0.903,-9.55,-2.0377,0.0164,-0.0328,-0.0225,0.005,0.0026,0.0085,96029,2021-08-07 02:34:31:525
0.9397,-9.6881,-2.1225,0.9104,-9.5475,-2.046,0.0436,-0.056,0.0603,0.0062,-0.0194,0.0121,96529,2021-08-07 02:34:32:025
0.8954,-9.5816,-2.0937,0.9181,-9.549,-2.0359,-0.0244,-0.1034,-0.0133,1.00E-04,-0.0029,-0.0025,97030,2021-08-07 02:34:32:526
1.0283,-9.6403,-1.992,0.9287,-9.5501,-2.0258,0.1186,-0.0904,0.0435,-0.0206,-0.028,0.0329,97530,2021-08-07 02:34:33:026
0.8523,-9.6438,-2.0411,0.9057,-9.552,-2.0271,-0.057,-0.0929,-0.0106,-0.0035,-0.0103,-0.0111,98029,2021-08-07 02:34:33:525
0.9661,-9.5588,-2.1141,0.9242,-9.5457,-2.0485,0.0379,-0.0139,-0.0641,0.0032,-0.0023,0.0048,98530,2021-08-07 02:34:34:026
0.8428,-9.6127,-2.1117,0.932,-9.5415,-2.0644,-0.0876,-0.07,-0.0521,0.0044,-0.0097,-0.0062,99029,2021-08-07 02:34:34:525
0.8523,-9.6582,-2.0806,0.9397,-9.5367,-2.083,-0.0964,-0.1219,3.00E-04,0.0038,-0.0182,0.0164,99529,2021-08-07 02:34:35:025
0.7518,-9.6666,-2.0566,0.9293,-9.541,-2.0678,-0.1747,-0.1241,0.0057,0.0081,-0.0029,-0.0135,100030,2021-08-07 02:34:35:526
0.9924,-9.6103,-2.059,0.9254,-9.544,-2.0559,0.0685,-0.0665,-0.002,0.002,-0.031,0.006,100529,2021-08-07 02:34:36:025
0.9828,-9.6331,-2.0662,0.9111,-9.5494,-2.0371,0.0686,-0.0841,-0.0285,-0.0011,0.0056,0.0036,101029,2021-08-07 02:34:36:525
0.9002,-9.6714,-2.0818,0.9196,-9.5479,-2.0401,-0.0179,-0.124,-0.0382,0.0093,-0.006,-0.0086,101529,2021-08-07 02:34:37:025
1.0355,-9.6187,-2.0758,0.9257,-9.5486,-2.0341,0.1085,-0.0711,-0.0377,-0.0066,-0.0225,-0.0019,102030,2021-08-07 02:34:37:526
0.9313,-9.5864,-2.0147,0.9392,-9.5451,-2.0445,-0.0073,-0.0405,0.0264,-5.00E-04,-0.0261,0.0024,102530,2021-08-07 02:34:38:026
0.9553,-9.657,-2.1536,0.9488,-9.5425,-2.052,0.0015,-0.1162,-0.096,0.0056,7.00E-04,-0.0025,103030,2021-08-07 02:34:38:526
0.905,-9.6319,-2.0734,0.9663,-9.5308,-2.0978,-0.0628,-0.1019,0.0274,-0.0182,0.0178,0.0121,103531,2021-08-07 02:34:39:027
1.0822,-9.5936,-2.1859,0.9777,-9.5249,-2.1189,0.1027,-0.0685,-0.0682,-0.0011,-0.0231,-1.00E-04,104032,2021-08-07 02:34:39:528
1.0139,-9.6079,-2.2589,0.9579,-9.5261,-2.123,0.0527,-0.0808,-0.1422,0.0178,-0.0078,-0.0013,104529,2021-08-07 02:34:40:025
1.1133,-9.5469,-2.2446,0.9537,-9.5274,-2.1189,0.1647,-0.0188,-0.1263,0.0044,-0.0359,-0.0154,105030,2021-08-07 02:34:40:526
0.8212,-9.6295,-2.1033,0.9362,-9.5326,-2.1033,-0.1236,-0.0994,0.0073,0.0062,-0.0164,-0.0074,105529,2021-08-07 02:34:41:025
0.9349,-9.7121,-2.1991,0.9693,-9.5282,-2.1083,-0.0289,-0.1838,-0.0888,-0.009,0.0184,0.0225,106030,2021-08-07 02:34:41:526
0.9373,-9.6618,-2.156,0.9725,-9.5255,-2.119,-0.0367,-0.1354,-0.0417,0.0062,0.0013,-0.0044,106529,2021-08-07 02:34:42:025
0.9313,-9.7157,-2.1715,0.9885,-9.5313,-2.0852,-0.0515,-0.1842,-0.0845,7.00E-04,-0.0097,0.0018,107029,2021-08-07 02:34:42:525
0.899,-9.5804,-2.1213,0.9842,-9.5289,-2.0978,-0.09,-0.052,-0.0234,7.00E-04,-0.0029,0.0011,107530,2021-08-07 02:34:43:026
0.8978,-9.663,-2.1919,0.9711,-9.5276,-2.1099,-0.0813,-0.1355,-0.0852,7.00E-04,-0.0176,0.0036,108030,2021-08-07 02:34:43:526
1.0774,-9.5996,-2.0446,0.9703,-9.5234,-2.1293,0.105,-0.0757,0.0818,-0.0194,-5.00E-04,0.0121,108529,2021-08-07 02:34:44:025
0.9876,-9.6187,-2.0758,0.9712,-9.5258,-2.1181,0.0199,-0.0939,0.0482,0.0056,0.0136,-7.00E-04,109029,2021-08-07 02:34:44:525
1.1827,-9.5648,-2.15,0.9311,-9.5298,-2.118,0.2345,-0.0371,-0.03,0.0026,-0.0292,0.0042,109530,2021-08-07 02:34:45:026
0.978,-9.6822,-2.0794,0.933,-9.5322,-2.1066,0.0578,-0.1479,0.0232,-0.0194,-0.0151,-0.005,110030,2021-08-07 02:34:45:526
1.1205,-9.4978,-2.0016,0.9857,-9.523,-2.1239,0.1373,0.0243,0.1276,7.00E-04,-0.0206,0.0134,110530,2021-08-07 02:34:46:026
1.1995,-9.6067,-2.1105,0.9403,-9.5368,-2.0823,0.2606,-0.0703,-0.0262,0.0203,-0.0042,0.0054,111030,2021-08-07 02:34:46:526
0.9062,-9.8545,-2.0207,0.7788,-9.581,-1.9415,0.1244,-0.2793,-0.0526,0.0331,0.1632,0.0537,111529,2021-08-07 02:34:47:025
1.0786,-9.8462,-1.9812,0.6976,-9.6176,-1.7846,0.374,-0.2236,-0.2263,0.0307,0.0575,0.0885,112029,2021-08-07 02:34:47:525
0.4094,-9.8821,-1.6041,0.6589,-9.6375,-1.6899,-0.2235,-0.2414,0.0771,-0.0066,-0.0115,-0.0135,112529,2021-08-07 02:34:48:025
0.6823,-9.7959,-1.8196,0.7036,-9.6281,-1.7251,-0.0238,-0.1702,-0.0822,-0.0176,-0.0164,-0.0105,113030,2021-08-07 02:34:48:526
0.8691,-9.6618,-1.9477,0.8665,-9.5769,-1.924,0.0124,-0.0797,-0.0452,-0.0267,-0.1147,-0.0544,113531,2021-08-07 02:34:49:027
1.0116,-9.6331,-1.9393,0.973,-9.5408,-2.0487,0.0526,-0.0888,0.0998,0.002,-0.0347,-0.0196,114029,2021-08-07 02:34:49:525
0.7374,-9.6582,-2.1476,1.0091,-9.5289,-2.086,-0.2786,-0.1281,-0.0703,-0.0206,-0.0035,0.0134,114529,2021-08-07 02:34:50:025
1.2378,-9.6079,-2.1416,1.0304,-9.5227,-2.1039,0.1963,-0.0867,-0.0362,-0.0023,-0.039,0.0127,115030,2021-08-07 02:34:50:526
1.227,-9.6055,-2.1272,1.0233,-9.5266,-2.0897,0.189,-0.0824,-0.029,-0.0029,-0.0231,0.0066,115530,2021-08-07 02:34:51:026
1.2342,-9.6343,-2.2254,1.0299,-9.5245,-2.0962,0.2,-0.1129,-0.1171,-0.0133,0.016,0.017,116030,2021-08-07 02:34:51:526
1.2629,-9.5301,-1.9968,1.0729,-9.5107,-2.1368,0.2085,-0.0173,0.1395,-0.0298,0.0148,-0.0074,116529,2021-08-07 02:34:52:025
1.2689,-9.5469,-2.1165,1.1411,-9.5014,-2.1429,0.1684,-0.0385,0.0167,-0.0365,-0.0109,-0.0239,117029,2021-08-07 02:34:52:525
1.3408,-9.584,-2.3176,1.2369,-9.4821,-2.1748,0.1011,-0.1016,-0.1456,0.0026,-0.0384,0.0415,117529,2021-08-07 02:34:53:025
1.2043,-9.5517,-2.3212,1.1187,-9.5054,-2.1367,0.1014,-0.0446,-0.1834,0.0172,-0.0054,0.0244,118030,2021-08-07 02:34:53:526
1.0044,-9.572,-2.2027,1.0434,-9.5179,-2.1192,-0.0317,-0.0517,-0.0907,0.0142,0.002,0.0134,118529,2021-08-07 02:34:54:025
1.0403,-9.6738,-2.2314,1.0266,-9.5209,-2.1138,0.0141,-0.1545,-0.1099,-0.031,-0.0151,0.0115,119029,2021-08-07 02:34:54:525
1.2474,-9.5948,-2.0913,1.0273,-9.5167,-2.1325,0.2278,-0.0785,0.0469,0.0117,-0.0298,0.003,119529,2021-08-07 02:34:55:025
1.0439,-9.6187,-2.1955,1.0443,-9.5165,-2.1253,-0.0023,-0.1029,-0.068,0.0252,0.016,-0.0099,120029,2021-08-07 02:34:55:525
0.978,-9.6151,-2.2194,1.0331,-9.5167,-2.1296,-0.0584,-0.0981,-0.093,-0.0072,-0.0194,0.003,120530,2021-08-07 02:34:56:026
1.1169,-9.5732,-2.1177,1.0366,-9.5151,-2.1353,0.0751,-0.0592,0.0198,-0.0103,0.0068,-0.0044,121030,2021-08-07 02:34:56:526
1.0786,-9.6438,-2.2027,1.0501,-9.5137,-2.1347,0.0246,-0.1308,-0.0667,-0.0011,0.0246,-0.0062,121529,2021-08-07 02:34:57:025
1.075,-9.5708,-2.0662,1.0484,-9.516,-2.1255,0.0338,-0.0573,0.0736,-0.017,-0.02,0.0299,122029,2021-08-07 02:34:57:525
1.1875,-9.6127,-2.1069,1.0574,-9.5093,-2.1505,0.1328,-0.102,0.0388,-0.0286,-0.0023,0.0213,122529,2021-08-07 02:34:58:025
1.1851,-9.5816,-2.1787,1.0528,-9.5086,-2.1563,0.145,-0.0709,-0.0256,-0.0298,0.0081,0.0011,123030,2021-08-07 02:34:58:526
1.1277,-9.6702,-2.2673,1.0925,-9.5011,-2.1694,0.0401,-0.1674,-0.103,0.0081,-0.0555,-0.0013,123530,2021-08-07 02:34:59:026
1.0606,-9.6857,-2.1584,1.0788,-9.5061,-2.1544,-0.0204,-0.1788,-0.0091,0.0014,0.0032,-0.0056,124029,2021-08-07 02:34:59:525
1.1241,-9.6163,-2.1955,1.0826,-9.5086,-2.1411,0.0357,-0.1071,-0.0598,1.00E-04,0.0276,-1.00E-04,124529,2021-08-07 02:35:00:025
1.154,-9.6043,-2.2182,1.0675,-9.5075,-2.1536,0.0914,-0.0404,-0.0541,0.0032,7.00E-04,0.0024,125030,2021-08-07 02:35:00:526
0.9421,-9.6726,-2.1859,1.0669,-9.5071,-2.1555,-0.0355,-0.1234,-0.0542,-0.0078,0.0233,-0.0031,125530,2021-08-07 02:35:01:026
0.9445,-9.6043,-2.2051,1.0757,-9.5028,-2.1703,-0.0313,-0.1115,0.0034,-0.0041,-0.0268,-0.0025,126030,2021-08-07 02:35:01:526
1.069,-9.5409,-2.2338,1.0908,-9.5002,-2.1742,-0.0154,-0.1267,-0.0259,0.024,-0.0286,0.014,126530,2021-08-07 02:35:02:026
0.9649,-9.6223,-2.1308,1.0716,-9.5127,-2.1287,-0.1067,-0.1096,-0.0021,-0.0115,1.00E-04,0.0109,127029,2021-08-07 02:35:02:525
1.1468,-9.6043,-2.144,1.0719,-9.5172,-2.1082,0.075,-0.0871,-0.0358,0.0032,-0.017,0.0018,127529,2021-08-07 02:35:03:025
0.8847,-9.6175,-2.0865,1.0761,-9.5179,-2.103,-0.1914,-0.0996,0.0164,0.0062,-0.0451,0.0011,128029,2021-08-07 02:35:03:525
1.1085,-9.6486,-2.211,1.087,-9.5135,-2.1171,0.0215,-0.1351,-0.0939,-0.0063,-0.0401,-0.0066,128529,2021-08-07 02:35:04:025
1.1803,-9.596,-2.1009,1.1144,-9.5047,-2.1421,0.0659,-0.0912,0.0412,-0.0191,-0.0175,-0.006,129030,2021-08-07 02:35:04:526
1.2043,-9.6091,-2.1189,1.1217,-9.5046,-2.1388,0.0826,-0.1045,0.0199,-0.0026,0.0491,0.0148,129530,2021-08-07 02:35:05:026
1.0846,-9.6007,-2.138,1.1282,-9.5043,-2.1369,-0.0436,-0.0965,-0.0011,-0.0069,-0.0077,0.0124,130029,2021-08-07 02:35:05:525
1.0977,-9.6187,-2.2589,1.1231,-9.5061,-2.1316,-0.0254,-0.1126,-0.1273,-0.0234,0.0136,-5.00E-04,130529,2021-08-07 02:35:06:025
1.0798,-9.5265,-2.0207,1.1238,-9.5059,-2.1319,-0.044,-0.0206,0.1112,-0.0246,-0.0053,-0.0017,131030,2021-08-07 02:35:06:526
1.1456,-9.517,-2.0662,1.1249,-9.5047,-2.1367,0.0207,-0.0122,0.0705,0.0188,0.0381,0.002,131530,2021-08-07 02:35:07:026
1.1325,-9.6019,-2.2362,1.1208,-9.5059,-2.1333,0.0117,-0.096,-0.1028,-0.0014,0.0271,1.00E-04,132029,2021-08-07 02:35:07:525
1.1349,-9.6271,-2.2122,1.1233,-9.5046,-2.138,0.0115,-0.1225,-0.0742,-0.0044,-0.0047,-5.00E-04,132529,2021-08-07 02:35:08:025
1.2641,-9.5217,-2.1823,1.1284,-9.4974,-2.1669,0.1357,-0.0243,-0.0154,-0.016,0.0277,0.0105,133029,2021-08-07 02:35:08:525
1.057,-9.6666,-2.3535,1.1853,-9.483,-2.1996,-0.3827,-0.2456,-0.0252,0.0078,0.0228,0.0014,133529,2021-08-07 02:35:09:025
0.82,-9.6115,-2.1811,1.1475,-9.4881,-2.1975,-0.2187,-0.1238,-0.0654,0.017,-0.0505,0.0026,134030,2021-08-07 02:35:09:526
1.1756,-9.5493,-2.1943,1.1061,-9.491,-2.2064,0.0678,-0.0577,0.0086,-0.0044,0.0124,0.0087,134531,2021-08-07 02:35:10:027
1.16,-9.6043,-2.1093,1.1161,-9.4928,-2.1936,-0.0139,-0.1104,0.1249,-0.0014,0.002,-0.009,135029,2021-08-07 02:35:10:525
1.087,-9.5181,-2.0423,1.1321,-9.4968,-2.168,-0.092,-0.1096,0.0439,0.0072,-0.0016,-0.0078,135529,2021-08-07 02:35:11:025
1.1672,-9.5636,-2.1488,1.143,-9.4959,-2.166,0.0199,-0.0675,0.0139,-0.013,0.0149,0.0014,136030,2021-08-07 02:35:11:526
0.9098,-9.5924,-2.1596,1.1293,-9.5023,-2.1453,0.1109,-0.2075,0.0739,-0.0142,0.0301,0.0215,136529,2021-08-07 02:35:12:025
1.1624,-9.5098,-2.0075,1.1099,-9.5073,-2.1328,0.0907,-0.0391,0.0532,-0.0057,-0.0041,0.0056,137029,2021-08-07 02:35:12:525
1.2414,-9.5553,-2.2254,1.1171,-9.507,-2.1305,0.0678,-0.0443,0.0183,-0.0118,0.0185,0.0056,137530,2021-08-07 02:35:13:026
1.0834,-9.6139,-2.2625,1.1335,-9.4943,-2.1779,-0.0157,-0.048,-0.0625,-0.0057,0.0094,-0.0023,138029,2021-08-07 02:35:13:525
1.0355,-9.6666,-2.1751,1.1293,-9.4899,-2.1993,0.1388,-0.0884,-0.0765,-0.0069,0.0142,-0.0133,138529,2021-08-07 02:35:14:025
1.0439,-9.6307,-2.2625,1.1187,-9.4897,-2.2055,-0.0814,-0.1237,-0.0505,-0.002,0.0332,-0.0115,139029,2021-08-07 02:35:14:525
1.251,-9.5852,-2.2302,1.1441,-9.4842,-2.2161,-0.0028,-0.0748,0.0605,-0.0057,-0.0047,-0.0096,139529,2021-08-07 02:35:15:025
1.1349,-9.5816,-2.065,1.1485,-9.4888,-2.194,0.0376,-0.0589,0.0567,0.0035,0.0234,0.0093,140029,2021-08-07 02:35:15:525
0.996,-9.6019,-2.1715,1.1389,-9.4956,-2.1697,-0.1352,-0.0898,-0.0094,0.0078,-0.0395,-0.006,140529,2021-08-07 02:35:16:025
0.9301,-9.5948,-2.2242,1.145,-9.4938,-2.1741,0.0306,-0.0992,-0.0045,0.0145,-0.0236,-0.0127,141029,2021-08-07 02:35:16:525
1.0894,-9.6307,-2.2087,1.1264,-9.4957,-2.1754,0.0063,-0.0313,-0.0542,-8.00E-04,-0.0236,0.0032,141530,2021-08-07 02:35:17:026
1.1217,-9.5936,-2.2206,1.1318,-9.4942,-2.1792,-0.0693,-0.1548,-0.0027,0.0066,-0.0029,-0.0017,142029,2021-08-07 02:35:17:525
1.2055,-9.6139,-2.1931,1.131,-9.4955,-2.1741,0.0487,-0.0857,-0.0016,-0.0057,-0.0029,0.005,142529,2021-08-07 02:35:18:025
1.0307,-9.6414,-2.2182,1.1244,-9.4961,-2.1747,0.0628,-0.0472,-0.05,-0.0032,0.032,0.005,143030,2021-08-07 02:35:18:526
1.4629,-9.572,-2.2218,1.1401,-9.4877,-2.2032,0.0594,-0.0522,-0.0528,-0.0014,0.0387,0.0105,143529,2021-08-07 02:35:19:025
1.3443,-9.3925,-2.1799,1.1825,-9.482,-2.2052,0.0458,-0.152,-0.1298,-0.0405,-0.0438,-0.1104,144029,2021-08-07 02:35:19:525
0.6632,-9.7719,-2.2613,1.1772,-9.507,-2.0981,0.2042,0.0334,0.043,0.1043,-0.0713,0.0038,144530,2021-08-07 02:35:20:026
0.917,-9.9335,-2.0997,1.1973,-9.5268,-1.994,-0.3245,-0.2179,-0.1319,0.0499,0.0564,0.0227,145030,2021-08-07 02:35:20:526
0.9816,-9.6929,-2.0853,0.9798,-9.5666,-1.9213,0.4284,0.043,0.0704,0.0115,0.0185,0.0252,145529,2021-08-07 02:35:21:025
1.1768,-9.487,-1.9752,0.9252,-9.5614,-1.9735,0.4559,-0.038,-0.1916,-0.0484,0.035,0.0441,146029,2021-08-07 02:35:21:525
0.99,-9.6965,-1.9429,1.0071,-9.5418,-2.0271,-0.1533,-0.1364,-0.0866,-0.0044,-0.0157,-0.0182,146529,2021-08-07 02:35:22:025
0.9864,-9.6762,-1.9501,1.0312,-9.5429,-2.01,0.0394,-0.08,-0.0836,5.00E-04,-0.001,-0.0139,147029,2021-08-07 02:35:22:525
1.1037,-9.7097,-2.1213,1.0375,-9.5367,-2.0362,0.0469,-0.0613,0.0289,-0.016,0.0313,0.0062,147529,2021-08-07 02:35:23:025
1.1049,-9.6175,-2.1009,1.0835,-9.5181,-2.0983,-0.0427,-0.1529,-0.0765,0.0084,0.0112,-0.0054,148029,2021-08-07 02:35:23:525
0.9242,-9.6438,-2.0818,1.0683,-9.5224,-2.0865,0.0194,-0.1447,0.0269,-0.0246,0.0466,-0.0066,148529,2021-08-07 02:35:24:025
1.2318,-9.6534,-2.0458,1.0714,-9.5237,-2.079,-0.0309,-0.1003,0.0275,-0.0136,0.0173,0.0056,149029,2021-08-07 02:35:24:525
1.1205,-9.5912,-2.0949,1.0879,-9.5193,-2.0904,0.0016,-0.071,0.0451,-0.0111,0.0167,1.00E-04,149530,2021-08-07 02:35:25:026
1.1349,-9.6139,-2.1596,1.1075,-9.5118,-2.1143,0.0326,-0.0379,-0.1323,-0.0124,0.0094,0.0069,150029,2021-08-07 02:35:25:525
1.1013,-9.4703,-2.1488,1.0725,-9.5179,-2.1046,-0.0885,-0.0885,0.058,-0.0014,0.0265,-0.0151,150530,2021-08-07 02:35:26:026
1.0427,-9.6019,-1.9848,1.1007,-9.513,-2.1122,-0.2681,-0.0245,0.0179,-0.005,-0.0487,0.0081,151029,2021-08-07 02:35:26:525
1.1205,-9.5768,-2.083,1.0923,-9.5124,-2.1191,-0.035,-0.1246,-0.0393,0.006,-0.034,0.0081,151529,2021-08-07 02:35:27:025
1.1456,-9.6007,-2.1129,1.0382,-9.5233,-2.0976,0.205,-0.0128,0.0332,-0.0093,0.0069,0.0154,152030,2021-08-07 02:35:27:526
1.1265,-9.6403,-2.1907,1.0664,-9.5144,-2.1234,-0.0239,-0.1174,-0.142,-0.0099,0.0167,-0.028,152531,2021-08-07 02:35:28:027
0.8547,-9.6343,-2.0638,1.0785,-9.5093,-2.1402,-0.0877,-0.1235,0.0313,0.0066,-0.0059,-0.0041,153029,2021-08-07 02:35:28:525
1.166,-9.6223,-2.2637,1.0989,-9.5041,-2.1529,0.214,-0.0274,-0.0734,0.0108,-0.001,-0.0115,153529,2021-08-07 02:35:29:025
1.0223,-9.6187,-2.1201,1.0722,-9.5063,-2.1565,0.0781,-0.0723,-0.0755,0.0017,0.0142,8.00E-04,154029,2021-08-07 02:35:29:525
0.984,-9.6139,-2.1584,1.056,-9.5102,-2.1472,0.0459,-0.0889,-0.0236,-0.0105,0.0637,0.0111,154530,2021-08-07 02:35:30:026
1.1432,-9.5289,-2.1452,1.0736,-9.5052,-2.1606,0.1417,-0.1051,0.0036,5.00E-04,0.0039,-0.0017,155030,2021-08-07 02:35:30:526
1.16,-9.6307,-2.1967,1.0562,-9.5083,-2.1559,0.0996,-0.1225,-0.0425,-0.0032,-0.0523,1.00E-04,155529,2021-08-07 02:35:31:025
1.0223,-9.6067,-2.0985,1.0412,-9.5159,-2.1293,-0.0183,-0.0913,0.0331,-0.0063,0.0265,0.0081,156029,2021-08-07 02:35:31:525
0.9553,-9.6762,-2.0554,1.0352,-9.5177,-2.1241,-0.0832,-0.1598,0.073,0.0047,-4.00E-04,0.0093,156530,2021-08-07 02:35:32:026
0.9816,-9.6259,-2.0399,1.0338,-9.5286,-2.0754,-0.0639,-0.0973,0.0298,-0.0191,0.0753,-0.0109,157030,2021-08-07 02:35:32:526
0.893,-9.7217,-2.053,1.092,-9.5085,-2.1369,-0.1789,-0.2084,0.0727,0.009,-0.0615,-0.0011,157530,2021-08-07 02:35:33:026
0.844,-9.6438,-2.0865,1.0381,-9.5165,-2.128,-0.2127,-0.1305,0.0467,0.0145,0.0063,0.0319,158029,2021-08-07 02:35:33:525
1.3731,-9.5181,-2.2565,1.1427,-9.4873,-2.2038,0.2469,-0.0272,-0.06,-0.0197,-0.0303,-0.0133,158530,2021-08-07 02:35:34:026
1.069,-9.681,-2.0291,1.0905,-9.5047,-2.1547,-0.0297,-0.1809,0.1418,-0.0069,0.0118,0.027,159030,2021-08-07 02:35:34:526
1.063,-9.4774,-2.0363,1.1032,-9.5057,-2.1436,-0.032,0.0295,0.1058,-0.0142,0.104,0.0044,159530,2021-08-07 02:35:35:026
0.838,-9.6127,-2.1859,1.0496,-9.5179,-2.1164,-0.1784,-0.0867,-0.09,0.0377,0.0081,0.0307,160029,2021-08-07 02:35:35:525
1.1708,-9.6403,-2.1691,0.8242,-9.5671,-1.9905,0.3629,-0.0668,-0.2027,0.0689,0.0503,0.0893,160529,2021-08-07 02:35:36:025
0.0239,-10.1394,-2.3176,0.5707,-9.6242,-1.7945,-0.6502,-0.5251,-0.5062,0.0951,0.2635,-0.0909,161030,2021-08-07 02:35:36:526
0.6021,-9.4535,-1.549,0.7848,-9.6131,-1.773,-0.1689,0.1553,0.2528,0.0328,0.2873,0.0789,161530,2021-08-07 02:35:37:026
0.9685,-9.8114,-1.9585,0.8782,-9.5953,-1.8246,0.0618,-0.2278,-0.0868,-0.068,-0.2038,-0.0628,162030,2021-08-07 02:35:37:526
0.929,-9.5696,-1.7717,0.8906,-9.5696,-1.9492,0.0383,-0.225,-0.1506,0.0023,0.0368,-0.0286,162529,2021-08-07 02:35:38:025
1.0702,-9.6666,-2.0674,1.0235,-9.5351,-2.0506,0.0335,-0.104,-0.012,-0.0246,0.104,0.0056,163029,2021-08-07 02:35:38:525
0.9876,-9.7109,-2.0363,1.0573,-9.5213,-2.0969,-0.0696,-0.1895,0.0606,0.0353,-0.0542,-0.0157,163530,2021-08-07 02:35:39:026
1.2055,-9.6271,-2.2901,1.0186,-9.5218,-2.1137,0.2315,-0.1011,-0.1393,-0.0118,-0.0132,-0.0035,164029,2021-08-07 02:35:39:525
0.8906,-9.5792,-1.9237,1.0429,-9.5215,-2.1032,-0.2584,-0.073,0.1186,0.0176,-0.0096,-0.0096,164530,2021-08-07 02:35:40:026
1.0391,-9.6462,-2.1021,0.9912,-9.5318,-2.0815,0.0442,-0.0921,-0.0886,-0.0118,0.0063,0.0209,165030,2021-08-07 02:35:40:526
1.0606,-9.6618,-2.1201,1.0111,-9.529,-2.0848,0.0476,-0.1326,-0.0373,-0.0173,0.0118,0.0111,165529,2021-08-07 02:35:41:025
1.1109,-9.6127,-2.1153,1.0457,-9.5207,-2.1054,0.0593,-0.0937,-0.0053,-0.0203,0.0656,0.0062,166030,2021-08-07 02:35:41:526
1.16,-9.5409,-2.1572,1.106,-9.5065,-2.1387,0.0545,-0.0328,-0.0253,-0.0044,-0.0139,-0.0261,166530,2021-08-07 02:35:42:026
1.0511,-9.7312,-2.2015,1.0662,-9.5244,-2.0784,-0.0214,-0.2069,-0.1262,-2.00E-04,0.0112,-0.0029,167029,2021-08-07 02:35:42:525
1.0774,-9.6307,-2.1691,1.0041,-9.5337,-2.0667,0.076,-0.0965,-0.1037,0.0127,0.0014,0.0185,167529,2021-08-07 02:35:43:025
0.8643,-9.6786,-2.1991,0.9589,-9.5452,-2.0349,-0.1171,-0.1372,-0.1571,-0.0014,0.0277,-0.0347,168029,2021-08-07 02:35:43:525
1.1349,-9.5636,-2.0638,1.0408,-9.5218,-2.103,0.0868,-0.0433,0.0423,-0.0136,0.0454,-0.0047,168530,2021-08-07 02:35:44:026
1.0439,-9.6295,-2.2326,1.0687,-9.5107,-2.1387,-0.0315,-0.1208,-0.0881,-0.0081,0.0423,-0.017,169029,2021-08-07 02:35:44:525
0.8523,-9.7432,-2.1967,1.0911,-9.5084,-2.1377,-0.2335,-0.2333,-0.0627,-0.0057,0.0087,0.0142,169529,2021-08-07 02:35:45:025
0.9517,-9.651,-2.1308,1.0886,-9.5047,-2.1554,-0.131,-0.145,0.0216,-0.0099,0.0259,-0.0164,170030,2021-08-07 02:35:45:526
1.2486,-9.481,-2.0949,1.0779,-9.5077,-2.1477,0.1016,-0.0572,0.0688,0.0017,0.0564,0.0087,170530,2021-08-07 02:35:46:026
1.1289,-9.5517,-2.1093,1.1043,-9.5005,-2.166,0.0043,-0.1372,-0.0408,0.0096,0.0368,8.00E-04,171030,2021-08-07 02:35:46:526
1.2234,-9.6379,-2.2769,1.1054,-9.5038,-2.1507,-0.2087,-0.101,-0.1094,-0.0081,0.0216,-0.0084,171530,2021-08-07 02:35:47:026
1.2869,-9.5529,-2.1668,1.0818,-9.5063,-2.152,0.028,-0.0787,-0.0113,-0.0099,0.0222,0.0044,172030,2021-08-07 02:35:47:526
1.0068,-9.5792,-2.1213,1.0799,-9.5085,-2.1431,-0.0806,-0.0662,-0.0283,-0.0111,0.0161,0.0014,172529,2021-08-07 02:35:48:025
1.0139,-9.5852,-2.211,1.099,-9.5031,-2.1572,-0.2145,-0.1487,0.0799,0.0072,0.0277,-0.02,173029,2021-08-07 02:35:48:525
0.9936,-9.6403,-2.2398,1.1056,-9.5019,-2.159,-0.0442,-0.0459,-0.039,-0.0044,0.0582,-0.0102,173530,2021-08-07 02:35:49:026
0.923,-9.7516,-2.2254,1.1342,-9.4991,-2.1567,-0.2112,-0.2525,-0.0688,0.0072,0.0204,0.005,174031,2021-08-07 02:35:49:527
1.1241,-9.572,-2.138,1.1057,-9.5055,-2.1431,0.0184,-0.0665,0.005,-0.0069,0.0136,0.0289,174530,2021-08-07 02:35:50:026
1.1708,-9.6115,-2.2158,1.106,-9.5064,-2.1392,0.0648,-0.1051,-0.0767,0.0023,0.0142,0.0062,175030,2021-08-07 02:35:50:526
1.0642,-9.6498,-2.2482,1.108,-9.5062,-2.1388,-0.0437,-0.1436,-0.1093,-0.0057,-0.0022,0.0056,175529,2021-08-07 02:35:51:025
0.8236,-9.6498,-2.229,1.0981,-9.5063,-2.1436,-0.2745,-0.1435,-0.0854,0.0182,-0.0218,-0.0084,176029,2021-08-07 02:35:51:525
1.1349,-9.6307,-2.1452,1.121,-9.5021,-2.1503,0.0138,-0.1286,0.0051,0.0035,0.0301,0.002,176530,2021-08-07 02:35:52:026
1.1947,-9.5792,-2.211,1.1492,-9.5021,-2.1354,0.0455,-0.0771,-0.0756,-0.0209,-0.0517,0.005,177029,2021-08-07 02:35:52:525
1.3001,-9.6319,-2.2063,1.1378,-9.5026,-2.1394,0.1623,-0.1293,-0.0668,-0.0197,0.0069,0.0099,177529,2021-08-07 02:35:53:025
1.1037,-9.5253,-2.071,1.1172,-9.5037,-2.1451,-0.0135,-0.0216,0.0741,-0.002,0.0387,0.0105,178029,2021-08-07 02:35:53:525
1.2689,-9.5457,-2.1823,1.1156,-9.4967,-2.177,0.1534,-0.049,-0.0053,-0.027,0.0265,0.0038,178529,2021-08-07 02:35:54:025
1.3791,-9.5445,-2.156,1.169,-9.4847,-2.2011,0.2101,-0.0598,0.0452,0.0231,0.0051,-0.0341,179030,2021-08-07 02:35:54:526
1.3348,-9.5768,-2.2685,1.1916,-9.4812,-2.204,0.1431,-0.0956,-0.0645,-0.0105,0.0155,-0.0011,179530,2021-08-07 02:35:55:026
1.1337,-9.6367,-2.1596,1.1653,-9.4865,-2.1951,-0.0316,-0.1501,0.0356,0.0108,0.0375,0.0014,180030,2021-08-07 02:35:55:526
1.257,-9.5385,-2.2541,1.1098,-9.4984,-2.1724,0.1471,-0.0401,-0.0818,-0.0124,0.0197,0.0319,180530,2021-08-07 02:35:56:026
1.3072,-9.5014,-2.0111,1.0952,-9.5001,-2.1724,0.212,-0.0013,0.1613,-0.024,0.002,0.0185,181030,2021-08-07 02:35:56:526
0.9816,-9.7264,-2.0004,0.8708,-9.5669,-1.9712,0.1109,-0.1595,-0.0291,0.0328,0.4266,0.1541,181529,2021-08-07 02:35:57:025
0.5602,-9.651,-1.6676,0.7288,-9.5995,-1.868,-0.1686,-0.0516,0.2005,0.0182,-0.1201,0.0172,182029,2021-08-07 02:35:57:525
0.34,-9.8354,-1.8962,0.4677,-9.6211,-1.84,-0.1277,-0.2143,-0.0562,0.0084,-0.2136,0.027,182530,2021-08-07 02:35:58:026
0.3268,-9.7947,-1.737,0.322,-9.6373,-1.7857,0.0048,-0.1574,0.0487,-0.0802,-0.1146,0.0686,183029,2021-08-07 02:35:58:525
0.8835,-9.675,-1.7226,0.2946,-9.6417,-1.7666,0.5889,-0.0332,0.0439,-0.0313,0.0332,-0.0102,183529,2021-08-07 02:35:59:025
0.31,-9.7528,-1.7023,0.3088,-9.6346,-1.8028,0.0013,-0.1182,0.1005,-0.0105,0.0026,0.0081,184030,2021-08-07 02:35:59:526
0.17,-9.7923,-1.7657,0.2655,-9.6397,-1.782,-0.0955,-0.1525,0.0163,0.0084,0.0045,-0.0047,184530,2021-08-07 02:36:00:026
0.6045,-9.6702,-1.7897,0.2781,-9.6452,-1.75,0.002,-0.0812,0.0525,-0.0173,-4.00E-04,-5.00E-04,185029,2021-08-07 02:36:00:525
0.4561,-9.5648,-1.6017,0.2855,-9.6459,-1.7452,0.1156,-0.1165,-0.0553,0.017,-0.0022,-0.0041,185529,2021-08-07 02:36:01:025
0.1963,-9.6403,-1.7334,0.2908,-9.6433,-1.7584,-0.0801,-0.1394,-0.0049,-8.00E-04,0.0711,-0.0157,186030,2021-08-07 02:36:01:526
0.3496,-9.7193,-1.6915,0.3984,-9.6276,-1.8224,-0.0728,0.1094,-0.0319,-0.0417,0.0821,-0.0231,186530,2021-08-07 02:36:02:026
0.3891,-9.8102,-1.889,0.5488,-9.6054,-1.8987,0.2485,-0.0288,-0.0861,-0.0081,-0.0432,-0.0219,187029,2021-08-07 02:36:02:525
0.4717,-9.6079,-1.9417,0.5746,-9.5997,-1.9201,0.0946,-0.2022,-0.1844,-0.0124,-0.0071,-0.0157,187529,2021-08-07 02:36:03:025
0.6321,-9.6019,-1.9549,0.6496,-9.5772,-2.0065,-0.0798,-0.087,-0.0633,0.0047,-0.0077,-0.0084,188029,2021-08-07 02:36:03:525
0.4465,-9.6199,-2.1153,0.5882,-9.5818,-2.0036,-0.3512,-0.1183,-0.1033,0.0047,0.0136,-0.0219,188530,2021-08-07 02:36:04:026
0.3771,-9.7612,-2.0243,0.4798,-9.6134,-1.8769,-0.3768,-0.0867,0.098,0.0451,-0.0633,0.0521,189030,2021-08-07 02:36:04:526
0.5698,-9.8174,-1.8004,0.0912,-9.6588,-1.6942,-0.6347,-0.0581,0.3116,0.0157,-0.1776,0.0832,189530,2021-08-07 02:36:05:026
-1.239,-9.845,-1.2582,0.0768,-9.6957,-1.4687,-0.6646,-0.2581,-0.0253,-0.0441,0.0283,-0.0084,190029,2021-08-07 02:36:05:525
-0.0395,-9.6474,-1.4521,-0.3054,-9.7018,-1.397,0.4478,0.0556,-0.4381,-0.0845,0.2635,-0.0078,190529,2021-08-07 02:36:06:025
0.0012,-9.9515,-1.6328,0.2653,-9.6419,-1.7704,-0.3467,-0.1301,0.0418,-0.0869,0.0259,-0.1086,191029,2021-08-07 02:36:06:525
0.4274,-9.6295,-1.9022,0.5089,-9.6113,-1.88,0.0513,-0.1247,-0.2412,0.0133,-0.0389,-0.0292,191530,2021-08-07 02:36:07:026
0.4501,-9.7025,-1.8747,0.5183,-9.6167,-1.8496,-0.2956,-0.1732,0.0037,0.0249,0.0087,-0.02,192030,2021-08-07 02:36:07:526
0.5878,-9.6953,-1.8579,0.5251,-9.6147,-1.858,-0.0451,-0.0208,-0.0046,0.0212,-0.0456,0.0093,192530,2021-08-07 02:36:08:026
0.2813,-9.6738,-1.8627,0.4596,-9.6192,-1.8518,-0.0059,-0.1575,-0.0061,-0.005,-0.1763,0.0069,193030,2021-08-07 02:36:08:526
0.231,-9.7552,-2.0303,0.3477,-9.6242,-1.8506,-0.1311,-5.00E-04,0.1364,0.0102,0.1383,-0.0164,193529,2021-08-07 02:36:09:025
0.3519,-9.6043,-1.81,0.3772,-9.6266,-1.8322,0.2527,-0.2354,-0.0452,-0.0368,0.1951,-0.0365,194030,2021-08-07 02:36:09:526
0.3531,-9.748,-1.8316,0.4525,-9.6167,-1.8665,0.0251,-0.0295,0.0589,-0.0057,-0.0084,0.0099,194529,2021-08-07 02:36:10:025
0.4034,-9.7121,-1.7933,0.4751,-9.6147,-1.8716,0.0241,-0.2219,-0.0916,-0.0063,0.0417,-0.0041,195029,2021-08-07 02:36:10:525
0.3112,-9.6774,-1.9142,0.4944,-9.6097,-1.892,0.2789,-0.0485,-0.0449,-0.0026,-0.0371,0.0221,195529,2021-08-07 02:36:11:025
0.3843,-9.7731,-1.9022,0.4417,-9.6089,-1.9091,-0.0909,-0.0481,0.0141,-0.0044,-0.0194,0.0081,196029,2021-08-07 02:36:11:525
0.2861,-9.6331,-1.8399,0.407,-9.6078,-1.9223,0.0659,-0.23,-0.0338,-0.0026,0.0368,-0.0072,196531,2021-08-07 02:36:12:027
0.723,-9.6822,-2.0004,0.5423,-9.6091,-1.882,-0.2454,-0.0862,-0.0382,-0.0221,0.0179,-0.0115,197030,2021-08-07 02:36:12:526
0.4441,-9.6498,-1.9896,0.5179,-9.5967,-1.9506,0.1955,-0.0471,0.046,-0.0105,0.024,0.0026,197530,2021-08-07 02:36:13:026
0.6512,-9.7013,-2.0231,0.5376,-9.596,-1.949,0.0992,-0.085,-0.0298,0.02,-0.0096,0.0124,198030,2021-08-07 02:36:13:526
0.3891,-9.7468,-2.0399,0.527,-9.597,-1.9466,-0.1487,-0.1126,0.0193,-0.0179,0.0161,-0.0017,198529,2021-08-07 02:36:14:025
0.4621,-9.7037,-1.8711,0.4458,-9.6062,-1.9214,-0.174,-0.1322,0.1066,-2.00E-04,-0.0102,0.0087,199029,2021-08-07 02:36:14:525
0.3244,-9.6606,-1.962,0.483,-9.6011,-1.9382,-0.0856,-0.1397,0.0312,-2.00E-04,0.0081,-0.0139,199529,2021-08-07 02:36:15:025
0.1305,-9.7516,-1.968,0.4999,-9.6067,-1.9059,-0.2126,-0.1638,0.076,0.0072,-0.0713,-0.0151,200029,2021-08-07 02:36:15:525
0.5028,-9.6989,-1.9597,0.49,-9.6092,-1.8957,-0.0348,-0.0322,-0.0219,-0.0075,0.0729,0.0014,200529,2021-08-07 02:36:16:025
0.3148,-9.6546,-1.8878,0.498,-9.6019,-1.9303,-0.1853,-0.2108,0.0079,0.0084,-0.0291,0.005,201029,2021-08-07 02:36:16:525
0.4513,-9.7037,-1.8878,0.4954,-9.5996,-1.9423,-0.0074,-0.0877,0.0492,-0.0099,0.0087,0.0038,201530,2021-08-07 02:36:17:026
0.425,-9.6714,-1.9632,0.4922,-9.6012,-1.9354,-0.1157,-0.1071,0.002,0.0072,-0.0157,-0.0023,202029,2021-08-07 02:36:17:525
0.2693,-9.742,-1.9896,0.5855,-9.5885,-1.9721,0.2864,-0.0202,-0.0541,-0.0105,-0.0713,1.00E-04,202529,2021-08-07 02:36:18:025
0.231,-9.7205,-1.9094,0.4353,-9.603,-1.9397,0.0364,-0.0803,-0.0786,0.0078,-0.0554,-0.0115,203030,2021-08-07 02:36:18:526
0.4752,-9.6474,-1.8974,0.5051,-9.5993,-1.9413,0.3066,-0.1235,-0.0974,-0.0154,0.0179,-0.0225,203530,2021-08-07 02:36:19:026
0.431,-9.6498,-1.974,0.5289,-9.5922,-1.9701,0.0146,-0.1032,0.0068,0.0102,-0.0047,-0.0115,204029,2021-08-07 02:36:19:525
0.7769,-9.6151,-2.0626,0.575,-9.5913,-1.9612,-0.0172,-0.1196,-0.0966,-0.0063,-0.0096,-0.0066,204529,2021-08-07 02:36:20:025
0.7578,-9.6893,-1.9585,0.5552,-9.594,-1.9537,0.0278,-0.0929,0.0946,-0.0118,-0.0328,-0.0017,205030,2021-08-07 02:36:20:526
0.3244,-9.7276,-1.8974,0.532,-9.5988,-1.9367,-0.0711,-0.0762,-0.0457,-0.0026,-0.0029,0.0032,205530,2021-08-07 02:36:21:026
0.5914,-9.7121,-2.0949,0.5425,-9.5947,-1.9538,0.1135,-0.0946,0.0216,0.0066,0.0546,-0.0023,206030,2021-08-07 02:36:21:526
0.3651,-9.8426,-1.8316,0.585,-9.588,-1.9744,-0.1505,-0.1636,-0.0822,-0.013,-0.0279,-5.00E-04,206530,2021-08-07 02:36:22:026
0.5662,-9.6331,-2.0446,0.5311,-9.6033,-1.9142,0.089,-0.0525,-0.0311,-0.0069,-0.0041,0.0069,207029,2021-08-07 02:36:22:525
0.7135,-9.6474,-1.8675,0.5709,-9.5975,-1.9319,0.0648,-0.1385,-0.1271,-8.00E-04,0.0094,-0.0151,207529,2021-08-07 02:36:23:025
0.7925,-9.7097,-2.0542,0.508,-9.5973,-1.9504,0.2845,-0.1124,-0.1039,-0.0014,0.0662,0.0044,208029,2021-08-07 02:36:23:525
1.002,-9.6881,-2.0722,0.6359,-9.581,-1.9925,0.1686,-0.1447,-0.0724,-0.0111,0.0252,0.0105,208530,2021-08-07 02:36:24:026
0.5974,-9.7264,-2.0027,0.6284,-9.5804,-1.9978,0.0268,-0.1077,0.0137,0.0066,-0.0139,-0.0164,209030,2021-08-07 02:36:24:526
0.5088,-9.7887,-1.8244,0.6792,-9.599,-1.8892,-0.1682,-0.1888,0.0609,0.0072,0.0155,-0.0133,209530,2021-08-07 02:36:25:026
0.8116,-9.6391,-1.6987,0.7527,-9.5931,-1.8912,0.0995,-0.075,0.0851,-0.0038,0.0063,-0.0041,210030,2021-08-07 02:36:25:526
1.1181,-9.6654,-1.9513,0.8438,-9.5891,-1.8729,0.0718,0.1269,-0.0205,-0.0124,0.1431,0.0044,210530,2021-08-07 02:36:26:026
0.48,-9.5984,-1.7849,0.6924,-9.6101,-1.8269,-0.2515,-0.0857,-0.0024,-0.0234,-0.144,0.0111,211030,2021-08-07 02:36:26:526
0.5531,-9.8713,-1.9297,0.5498,-9.6209,-1.8183,-0.0051,-0.254,-0.0952,0.0432,-0.1006,0.0032,211529,2021-08-07 02:36:27:025
0.662,-9.7432,-1.7705,0.4933,-9.637,-1.7477,0.1975,-0.1039,-0.0275,-0.0441,0.0515,-0.0011,212029,2021-08-07 02:36:27:525
0.5387,-9.6594,-1.7992,0.5228,-9.6229,-1.8158,0.0254,-0.0372,0.0228,-0.0179,-0.0218,0.0111,212530,2021-08-07 02:36:28:026
0.5938,-9.8426,-1.7957,0.5029,-9.6266,-1.8018,0.0823,-0.2161,0.0043,0.0182,0.0381,-0.0335,213030,2021-08-07 02:36:28:526
0.5866,-9.6762,-1.8555,0.5092,-9.6271,-1.7971,0.086,-0.0488,-0.0573,0.0047,-0.0151,0.0014,213530,2021-08-07 02:36:29:026
0.577,-9.7037,-1.7597,0.5271,-9.6253,-1.8016,0.0513,-0.0774,0.0369,-0.0093,0.0692,0.0111,214030,2021-08-07 02:36:29:526
0.3256,-9.7528,-1.8639,0.5469,-9.6087,-1.8827,-0.2304,-0.1456,0.0237,0.0145,-0.001,-0.0109,214530,2021-08-07 02:36:30:026
0.5746,-9.7743,-1.8783,0.5306,-9.6103,-1.8792,0.0487,-0.1641,0.0025,-0.0057,-0.0175,0.0038,215029,2021-08-07 02:36:30:525
0.4896,-9.7336,-2.0291,0.5696,-9.6013,-1.9135,-0.0932,-0.1344,-0.109,-0.0081,0.0399,-0.0164,215529,2021-08-07 02:36:31:025
0.4489,-9.5588,-1.8555,0.5848,-9.5939,-1.9457,-0.1363,0.0348,0.0914,-0.0069,-0.0352,-0.0047,216029,2021-08-07 02:36:31:525
0.6584,-9.5361,-1.7873,0.5965,-9.5901,-1.9609,0.0496,0.0558,0.1607,0.0096,0.0381,-0.0298,216530,2021-08-07 02:36:32:026
0.7039,-9.6929,-1.8507,0.5847,-9.6,-1.9154,0.1109,-0.0953,0.074,0.0115,-0.0163,-0.0041,217030,2021-08-07 02:36:32:526
0.4142,-9.736,-1.8938,0.5289,-9.6033,-1.9149,-0.1313,-0.1342,0.024,-8.00E-04,-0.02,0.027,217529,2021-08-07 02:36:33:025
0.3938,-9.821,-1.8759,0.4826,-9.6154,-1.8661,-0.0975,-0.2078,-8.00E-04,0.0084,-0.031,-0.017,218029,2021-08-07 02:36:33:525
0.7566,-9.7217,-2.0446,0.4975,-9.6122,-1.8782,0.2443,-0.1123,-0.1556,-0.0032,-0.0371,-0.0029,218529,2021-08-07 02:36:34:025
0.2705,-9.7755,-2.0339,0.5197,-9.6042,-1.9129,-0.2425,-0.1691,-0.1302,0.0163,0.0087,-0.0188,219030,2021-08-07 02:36:34:526
0.7195,-9.5565,-1.9261,0.5058,-9.6012,-1.9318,0.2074,0.0436,0.0097,0.0206,0.0069,0.002,219530,2021-08-07 02:36:35:026
0.4393,-9.6798,-1.9908,0.5161,-9.6022,-1.9239,-0.0926,-0.0786,-0.0656,0.0023,0.0081,-0.0041,220029,2021-08-07 02:36:35:525
0.146,-9.7205,-1.889,0.5504,-9.6022,-1.9146,-0.4329,-0.1213,0.0324,0.0115,0.0057,-0.0194,220529,2021-08-07 02:36:36:025
0.565,-9.7264,-1.9537,0.5324,-9.6039,-1.9112,0.0224,-0.1236,-0.0401,-0.0105,0.0283,-0.0139,221029,2021-08-07 02:36:36:525
0.5483,-9.6893,-1.9728,0.5217,-9.6031,-1.9181,0.0325,-0.0857,-0.0559,-0.0014,0.0594,0.0179,221530,2021-08-07 02:36:37:026
0.2514,-9.6642,-2.0075,0.5906,-9.5906,-1.9603,-0.3332,-0.0727,-0.0501,0.0072,-0.0456,-0.0194,222029,2021-08-07 02:36:37:525
0.3891,-9.6546,-1.9632,0.5621,-9.5907,-1.968,-0.1857,-0.0663,0.0124,-0.0026,0.0381,0.005,222530,2021-08-07 02:36:38:026
0.3998,-9.7875,-1.6951,0.5401,-9.6255,-1.7969,-0.1577,-0.173,0.1547,0.0524,-0.0273,-5.00E-04,223030,2021-08-07 02:36:38:526
0.7458,-9.7624,-1.5467,0.5428,-9.6481,-1.6704,0.2,-0.1168,0.1373,0.0224,-0.0114,-0.0041,223530,2021-08-07 02:36:39:026
0.5171,-9.76,-1.7023,0.5005,-9.6609,-1.6086,0.0121,-0.0999,-0.0901,-0.0044,0.0216,-0.0084,224029,2021-08-07 02:36:39:525
0.6057,-9.6546,-1.5993,0.5324,-9.6539,-1.6399,0.068,-0.001,0.0402,-0.0081,0.0204,-0.0066,224529,2021-08-07 02:36:40:025
0.6704,-9.9048,-1.8483,0.56,-9.6502,-1.6522,0.107,-0.255,-0.1948,0.0023,0.046,-0.0035,225030,2021-08-07 02:36:40:526
1.4174,-9.0573,-2.4277,0.4836,-9.6136,-1.8746,0.7914,0.541,-0.5167,-0.1046,-0.2344,-0.2051,225529,2021-08-07 02:36:41:025
0.6812,-9.8019,-1.3886,0.4776,-9.6318,-1.7804,0.1566,-0.1827,0.4463,0.1232,-0.0395,0.035,226029,2021-08-07 02:36:41:525
0.4561,-9.6905,-1.4904,0.2932,-9.6753,-1.5726,0.179,-0.0176,0.0999,0.0182,0.0509,0.005,226529,2021-08-07 02:36:42:025
0.1939,-9.7444,-1.4952,0.3354,-9.6827,-1.5173,-0.1373,-0.0621,0.026,-0.0252,0.0332,-0.0133,227029,2021-08-07 02:36:42:525
0.1664,-9.7193,-1.561,0.3073,-9.6771,-1.5586,-0.1346,-0.0441,0.0112,-0.0276,0.0546,0.0148,227530,2021-08-07 02:36:43:026
0.6273,-9.5876,-1.5395,0.3817,-9.6545,-1.6781,0.2392,0.067,0.1365,-0.005,-0.0297,0.0185,228030,2021-08-07 02:36:43:526
0.3376,-9.7085,-1.6364,0.3273,-9.6607,-1.6536,0.0033,-0.0461,0.0059,-2.00E-04,0.0124,0.0038,228530,2021-08-07 02:36:44:026
0.316,-9.821,-1.8615,0.4083,-9.6517,-1.688,-0.0966,-0.1677,-0.1842,-0.0081,0.0356,0.0062,229029,2021-08-07 02:36:44:525
0.4286,-9.7109,-1.7837,0.3923,-9.6543,-1.6769,0.0372,-0.0561,-0.1099,0.0231,0.0509,0.0197,229529,2021-08-07 02:36:45:025
0.7506,-9.6774,-1.7621,0.3755,-9.6471,-1.7211,0.3452,-0.0341,-0.0264,-0.0276,-0.0059,0.0105,230030,2021-08-07 02:36:45:526
0.6297,-9.675,-1.8806,0.4342,-9.6298,-1.8022,0.1774,-0.0477,-0.0692,-0.0105,-0.0041,0.0099,230530,2021-08-07 02:36:46:026
0.6716,-9.6283,-1.7897,0.4448,-9.6245,-1.8281,0.2071,-0.0057,0.0435,-0.0148,-0.0084,0.0191,231030,2021-08-07 02:36:46:526
0.3867,-9.76,-1.6065,0.4238,-9.6293,-1.8076,-0.0282,-0.1291,0.1948,-0.0014,0.0313,-0.0072,231530,2021-08-07 02:36:47:026
0.2346,-9.7276,-1.8447,0.4158,-9.6332,-1.7886,-0.1823,-0.0924,-0.0675,-0.0221,0.0197,0.0099,232030,2021-08-07 02:36:47:526
0.5052,-9.6869,-1.8938,0.4716,-9.6246,-1.8206,0.0448,-0.0592,-0.0869,-0.0185,0.0087,1.00E-04,232529,2021-08-07 02:36:48:025
0.2203,-9.7875,-1.7609,0.469,-9.6209,-1.8406,-0.2263,-0.1635,0.0694,0.0078,0.0106,0.0014,233029,2021-08-07 02:36:48:525
0.6021,-9.6714,-1.9429,0.4916,-9.6191,-1.8443,0.0998,-0.0552,-0.0861,-0.0136,0.0094,-0.0029,233529,2021-08-07 02:36:49:025
0.4142,-9.6989,-1.8759,0.4898,-9.6138,-1.8724,-0.0705,-0.0848,-0.004,-0.0044,0.032,0.005,234030,2021-08-07 02:36:49:526
0.5028,-9.7241,-1.895,0.541,-9.6068,-1.8939,-0.0391,-0.1166,-0.0047,-0.0014,0.0026,8.00E-04,234530,2021-08-07 02:36:50:026
0.5686,-9.6881,-1.8794,0.55,-9.6087,-1.8816,0.0232,-0.08,0.0063,-2.00E-04,0.0332,1.00E-04,235030,2021-08-07 02:36:50:526
0.5243,-9.7408,-2.0147,0.5607,-9.6046,-1.8994,-0.0373,-0.1346,-0.124,-0.0099,0.0075,-0.0029,235529,2021-08-07 02:36:51:025
0.7542,-9.7157,-2.0518,0.5942,-9.5975,-1.925,0.1506,-0.1174,-0.1339,0.0231,0.0234,-0.0017,236029,2021-08-07 02:36:51:525
0.5207,-9.6726,-1.7549,0.6632,-9.6076,-1.8503,-0.1361,-0.061,0.077,0.02,0.0191,0.0032,236530,2021-08-07 02:36:52:026
0.3843,-9.7097,-1.506,0.4991,-9.6496,-1.6754,-0.2291,-0.1254,0.0541,0.0249,-0.0322,0.0142,237030,2021-08-07 02:36:52:526
0.3496,-9.7396,-1.9082,0.5797,-9.6324,-1.7469,-0.4316,-0.0969,-0.0359,0.0108,-0.0096,0.0062,237529,2021-08-07 02:36:53:025
0.6297,-9.7061,-1.8447,0.6087,-9.6252,-1.7761,0.0265,-0.0809,-0.0665,0.0133,0.0888,0.0026,238029,2021-08-07 02:36:53:525
0.7039,-9.5433,-1.8387,0.4961,-9.629,-1.791,0.2616,-0.0376,-0.0077,-0.0136,-0.2008,0.0466,238529,2021-08-07 02:36:54:025
0.6093,-9.754,-2.0375,0.3438,-9.6384,-1.7758,-0.2409,-0.0581,-0.2294,0.0243,0.0912,0.013,239029,2021-08-07 02:36:54:525
0.4046,-9.7576,-1.8435,0.2824,-9.6491,-1.7279,0.1378,-0.0774,-0.0055,0.0182,0.0234,0.0117,239530,2021-08-07 02:36:55:026
0.3268,-9.7528,-1.7609,0.3123,-9.6457,-1.7417,0.0128,-0.1074,-0.018,-0.013,0.0265,-0.0047,240030,2021-08-07 02:36:55:526
0.4369,-9.6199,-1.7729,0.3634,-9.6362,-1.7839,0.0719,0.0156,0.0145,0.0017,-0.0022,0.013,240529,2021-08-07 02:36:56:025
0.3903,-9.7408,-1.7681,0.363,-9.6372,-1.7787,0.0227,-0.1042,0.0125,-0.005,0.032,-0.0011,241029,2021-08-07 02:36:56:525
0.3424,-9.736,-1.8711,0.4046,-9.6241,-1.8393,-0.0665,-0.1133,-0.0255,-0.0105,0.0185,-0.0084,241529,2021-08-07 02:36:57:025
0.4238,-9.6594,-1.8902,0.415,-9.6216,-1.8499,0.0114,-0.0375,-0.0413,5.00E-04,-0.0108,0.013,242030,2021-08-07 02:36:57:526
0.4238,-9.6822,-1.828,0.4061,-9.6214,-1.8531,0.0209,-0.0602,0.023,-0.0087,0.0307,0.0069,242530,2021-08-07 02:36:58:026
0.4896,-9.6618,-1.8878,0.421,-9.6182,-1.8662,0.0675,-0.0442,-0.0185,0.0108,-0.0352,-0.0017,243029,2021-08-07 02:36:58:525
0.3819,-9.7025,-1.7753,0.3913,-9.6237,-1.8443,-0.0097,-0.0798,0.0744,0.0023,0.0509,0.0026,243529,2021-08-07 02:36:59:025
0.3759,-9.7312,-1.7992,0.4195,-9.6208,-1.8535,-0.0357,-0.1094,0.0503,-8.00E-04,0.0032,-0.0041,244030,2021-08-07 02:36:59:526
0.4992,-9.7875,-1.9357,0.4153,-9.619,-1.8635,0.0855,-0.1689,-0.0699,-0.0069,0.0149,0.005,244529,2021-08-07 02:37:00:025
0.4621,-9.7193,-1.7801,0.4081,-9.6169,-1.8758,0.0513,-0.1024,0.0953,-0.0111,0.0313,0.0038,245029,2021-08-07 02:37:00:525
0.3567,-9.6857,-1.9788,0.4518,-9.6114,-1.8942,-0.103,-0.0744,-0.0865,5.00E-04,0.0362,8.00E-04,245530,2021-08-07 02:37:01:026
0.4118,-9.6989,-1.9034,0.4389,-9.6123,-1.8924,-7.00E-04,-0.095,0.0776,-0.013,0.0026,0.0044,246030,2021-08-07 02:37:01:526
0.5531,-9.7432,-1.8471,0.4631,-9.6095,-1.901,0.0804,-0.0607,0.0239,-0.0075,-0.0187,0.0111,246530,2021-08-07 02:37:02:026
0.4537,-9.7085,-1.8495,0.4706,-9.6185,-1.853,-0.0169,-0.09,0.0035,0.0151,-0.0053,-0.0023,247029,2021-08-07 02:37:02:525
0.5842,-9.7444,-1.8914,0.458,-9.6155,-1.8716,-0.0258,-0.0559,0.0975,-0.0118,-0.0084,0.0105,247529,2021-08-07 02:37:03:025
0.4537,-9.675,-1.9585,0.425,-9.6166,-1.8737,0.1209,-0.0871,0.0086,-0.0014,0.0472,0.0124,248029,2021-08-07 02:37:03:525
0.2753,-9.742,-1.8759,0.4517,-9.6101,-1.9004,-0.2446,-0.1091,0.0389,0.0035,0.0026,-0.0121,248530,2021-08-07 02:37:04:026
0.4058,-9.7372,-1.9477,0.4561,-9.6089,-1.9058,-0.0503,-0.1283,-0.0419,-0.0026,-0.0096,-0.0035,249029,2021-08-07 02:37:04:525
0.4932,-9.8043,-1.9549,0.4324,-9.6078,-1.9164,0.0608,-0.1964,-0.0384,0.0041,-0.0187,8.00E-04,249529,2021-08-07 02:37:05:025
0.5231,-9.7492,-1.9405,0.4689,-9.599,-1.952,0.0542,-0.1502,0.0115,-0.0099,0.093,0.0148,250029,2021-08-07 02:37:05:525
0.5064,-9.6881,-2.0123,0.5028,-9.5937,-1.9696,0.0036,-0.0945,-0.0427,-0.0057,-0.0303,0.0056,250530,2021-08-07 02:37:06:026
1.1923,-9.0273,-1.4497,0.5971,-9.5848,-1.9865,0.5952,0.5574,0.5368,0.1428,-0.0627,-0.0347,251030,2021-08-07 02:37:06:526
1.008,-9.6007,-1.9537,0.6497,-9.5874,-1.9573,0.3583,-0.0134,0.0036,0.0127,-0.0413,-0.0164,251529,2021-08-07 02:37:07:025
0.6596,-9.645,-1.9824,0.573,-9.6152,-1.8413,0.0866,-0.0299,-0.1411,0.0029,0.0057,0.0258,252029,2021-08-07 02:37:07:525
0.4741,-9.742,-1.8687,0.5821,-9.6166,-1.831,-0.1081,-0.1254,-0.0377,5.00E-04,0.024,-0.006,252530,2021-08-07 02:37:08:026
0.6105,-9.815,-1.7621,0.5728,-9.6104,-1.8659,0.0377,-0.2046,0.1038,-0.0087,-0.177,-0.0438,253030,2021-08-07 02:37:08:526
0.3472,-9.6426,-2.0147,0.6312,-9.5805,-1.9965,-0.284,-0.0622,-0.0182,0.0817,0.0344,0.0588,253530,2021-08-07 02:37:09:026
0.4537,-9.7073,-1.4317,0.4775,-9.6473,-1.6948,-0.0238,-0.06,0.2631,-0.0221,-0.0627,0.0362,254030,2021-08-07 02:37:09:526
0.3448,-9.7576,-1.6424,0.4016,-9.6455,-1.7245,-0.0569,-0.1121,0.0821,-0.0185,0.0533,-0.0102,254529,2021-08-07 02:37:10:025
0.4788,-9.7875,-1.7921,0.4808,-9.6306,-1.7865,-0.0019,-0.1569,-0.0056,-0.016,0.0179,-0.017,255029,2021-08-07 02:37:10:525
0.4741,-9.7779,-1.8411,0.475,-9.6237,-1.8244,-0.001,-0.1542,-0.0168,-0.0014,0.0252,0.0093,255530,2021-08-07 02:37:11:026
0.4262,-9.6642,-1.8304,0.4731,-9.6259,-1.8137,-0.0469,-0.0383,-0.0166,0.006,0.0081,-0.0298,256029,2021-08-07 02:37:11:525
0.577,-9.748,-1.8471,0.481,-9.6215,-1.8346,0.096,-0.1265,-0.0126,-0.0087,0.0161,0.0032,256529,2021-08-07 02:37:12:025
0.3208,-9.8222,-1.7585,0.4887,-9.6229,-1.825,-0.1679,-0.1993,0.0664,-0.0026,-0.02,-0.0133,257029,2021-08-07 02:37:12:525
0.492,-9.6929,-1.7334,0.4919,-9.6277,-1.799,1.00E-04,-0.0653,0.0656,-0.0191,0.0216,-0.0029,257530,2021-08-07 02:37:13:026
0.4274,-9.7648,-1.8088,0.5124,-9.6202,-1.8331,-0.085,-0.1446,0.0243,-0.0087,-0.0371,-0.0023,258029,2021-08-07 02:37:13:525
0.4992,-9.6642,-1.913,0.4579,-9.6219,-1.8385,0.0413,-0.0423,-0.0745,-0.0093,-0.0071,0.0203,258529,2021-08-07 02:37:14:025
0.2897,-9.7432,-1.9142,0.4813,-9.6157,-1.8649,-0.1916,-0.1275,-0.0493,-0.0191,0.0185,0.0014,259030,2021-08-07 02:37:14:526
0.486,-9.6534,-1.9501,0.4468,-9.6184,-1.8594,0.0392,-0.035,-0.0906,0.0151,0.0478,0.0038,259529,2021-08-07 02:37:15:025
0.741,-9.6845,-1.7585,0.4814,-9.6163,-1.8613,0.2596,-0.0682,0.1028,-0.0044,0.0045,0.0093,260030,2021-08-07 02:37:15:526
0.7566,-9.5972,-1.9609,0.5025,-9.6154,-1.8605,0.254,0.0183,-0.1004,-0.0105,-0.0145,-0.0102,260529,2021-08-07 02:37:16:025
0.5351,-9.6019,-1.9381,0.533,-9.6093,-1.8837,0.0021,0.0073,-0.0544,-0.0111,0.0094,0.0044,261029,2021-08-07 02:37:16:525
0.492,-9.6941,-2.065,0.5156,-9.6081,-1.8946,-0.0236,-0.0861,-0.1704,-0.0179,0.0167,0.0093,261530,2021-08-07 02:37:17:026
0.5112,-9.7552,-1.992,0.536,-9.6001,-1.9291,-0.0249,-0.1551,-0.0629,-0.0026,-0.0291,0.0172,262030,2021-08-07 02:37:17:526
0.735,-9.6139,-2.0243,0.5605,-9.5941,-1.9519,0.1745,-0.0198,-0.0724,-0.0221,0.0234,0.0289,262529,2021-08-07 02:37:18:025
0.2215,-9.6175,-1.9752,0.6053,-9.5918,-1.9499,-0.3838,-0.0257,-0.0253,0.0689,-0.1244,-0.053,263029,2021-08-07 02:37:18:525
1.646,-9.3446,-1.7585,0.7946,-9.5715,-1.9811,0.8514,0.227,0.2226,0.1703,-0.3101,-0.0212,263529,2021-08-07 02:37:19:025
1.2701,-9.5612,-2.0518,1.0106,-9.5446,-2.0121,0.2595,-0.0166,-0.0397,-0.0594,0.0875,-0.0634,264030,2021-08-07 02:37:19:526
1.67,-9.4272,-1.8567,1.5221,-9.5239,-1.7748,0.1479,0.0967,-0.0819,0.0108,0.0973,0.0282,264530,2021-08-07 02:37:20:026
1.0965,-10.0556,-0.9756,0.9568,-9.716,-0.9238,0.1398,-0.3396,-0.0519,0.1831,-0.4433,0.1132,265029,2021-08-07 02:37:20:525
0.2191,-9.9898,-0.4046,0.8001,-9.7571,-0.573,-0.581,-0.2327,0.1684,0.0591,-0.3217,-0.0762,265530,2021-08-07 02:37:21:026
0.7494,-9.839,-0.5459,0.6884,-9.7763,-0.3469,0.061,-0.0627,-0.199,0.0133,-0.0719,0.016,266030,2021-08-07 02:37:21:526
0.3316,-9.985,-0.085,0.7099,-9.7769,-0.2812,-0.3783,-0.2081,0.1962,0.0102,0.0649,-0.0096,266530,2021-08-07 02:37:22:026
0.808,-9.8725,-0.5842,0.726,-9.7777,-0.199,0.0821,-0.0948,-0.3852,-0.1028,-0.0664,-0.1013,267029,2021-08-07 02:37:22:525
1.3491,-10.0173,-0.8021,0.9021,-9.7513,-0.5187,0.4471,-0.2661,-0.2833,-0.0075,0.0289,0.027,267529,2021-08-07 02:37:23:025
0.5195,-9.9407,0.1113,0.3741,-9.7995,-0.0198,0.1454,-0.1412,0.1311,0.1031,0.3093,0.0582,268032,2021-08-07 02:37:23:528
-0.1006,-9.7408,-0.1101,0.4422,-9.7965,-0.0604,-0.5427,0.0557,-0.0497,-0.0832,-0.2106,-0.0732,268529,2021-08-07 02:37:24:025
1.0774,-9.8593,-0.5315,0.9189,-9.7406,-0.6681,0.1585,-0.1187,0.1366,0.006,-0.2594,-0.0707,269029,2021-08-07 02:37:24:525
1.0977,-9.8952,-0.6931,0.9428,-9.7472,-0.5233,0.1549,-0.1481,-0.1698,0.0273,-0.0377,0.0099,269530,2021-08-07 02:37:25:026
0.6812,-9.9575,-0.5746,0.7636,-9.7715,-0.3249,-0.0825,-0.186,-0.2497,0.0457,0.3075,0.184,270029,2021-08-07 02:37:25:525
0.6991,-9.8773,-0.644,0.4751,-9.7886,-0.3574,0.224,-0.0887,-0.2866,-0.2011,0.7393,0.0081,270529,2021-08-07 02:37:26:025
0.6069,-9.8318,-1.5419,0.7951,-9.697,-1.2273,-0.1881,-0.1348,-0.3145,-0.1663,0.294,-0.1239,271032,2021-08-07 02:37:26:528
0.3148,-10.0401,-2.4708,0.4804,-9.5869,-2.0079,-0.1655,-0.4532,-0.4629,0.1373,0.1034,0.1981,271529,2021-08-07 02:37:27:025
-0.0946,-9.8976,-0.929,0.5946,-9.726,-1.1052,-0.6892,-0.1716,0.1762,0.4439,0.5463,0.1168,272030,2021-08-07 02:37:27:526
0.0886,-9.6953,0.3496,0.4613,-9.7955,-0.0762,-0.3727,0.1002,0.4257,0.141,1.0625,-0.1159,272530,2021-08-07 02:37:28:026
0.0587,-9.7504,0.9038,0.7631,-9.7638,0.5071,-0.7044,0.0134,0.3967,-0.1797,1.4541,-0.0396,273030,2021-08-07 02:37:28:526
-0.3579,-10.0209,0.3579,0.7539,-9.7602,0.5837,-1.1118,-0.2607,-0.2258,-0.1315,1.1523,0.2475,273529,2021-08-07 02:37:29:025
0.0371,-9.1925,-0.0156,-0.7455,-9.7782,0.0297,0.7826,0.5857,-0.0453,-0.1101,-0.0071,0.1327,274029,2021-08-07 02:37:29:525
-1.4605,-9.6546,0.3603,-1.2928,-9.7211,3.00E-04,-0.1676,0.0664,0.36,-0.0472,0.0252,0.0747,274530,2021-08-07 02:37:30:026
-1.5251,-9.9635,0.1353,-1.299,-9.7147,0.3284,0.0538,-0.1163,-0.3468,0.1269,-0.2234,-0.1898,275030,2021-08-07 02:37:30:526
0.3244,-9.7564,-0.3304,0.1734,-9.7878,0.5822,1.3845,0.3017,1.0397,0.0017,-0.6278,-0.3426,275529,2021-08-07 02:37:31:025
0.4334,-10.0293,1.3946,0.7416,-9.7652,0.512,-0.369,-0.2683,0.8946,0.0432,-1.4298,0.1614,276030,2021-08-07 02:37:31:526
-0.2622,-10.2256,-0.6919,0.3605,-9.7907,0.4268,0.1624,-0.0318,0.4968,-0.2476,-0.2588,-0.0616,276530,2021-08-07 02:37:32:026
0.8535,-9.6582,-0.6512,0.5781,-9.7743,-0.5464,0.0737,0.0257,-0.2947,-0.1565,0.3209,-0.0347,277030,2021-08-07 02:37:32:526
0.9852,-9.8162,-0.6273,0.7816,-9.7424,-0.8033,0.1421,-0.0666,0.0788,0.0023,0.0753,0.0093,277529,2021-08-07 02:37:33:025
1.087,-9.7959,-0.747,0.7917,-9.7469,-0.7353,0.2879,-0.0498,-0.0077,-0.0111,0.0252,-0.0121,278029,2021-08-07 02:37:33:525
0.9218,-9.827,-0.5399,0.8044,-9.7503,-0.6743,0.106,-0.0765,0.1184,0.0029,0.0992,0.0014,278529,2021-08-07 02:37:34:025
0.7123,-9.8773,-0.5662,0.7548,-9.7601,-0.5843,-0.0518,-0.1179,0.0184,-0.0014,0.002,0.0081,279029,2021-08-07 02:37:34:525
0.6812,-9.8857,-0.5926,0.7631,-9.7589,-0.5934,-0.0771,-0.1264,3.00E-04,0.0066,0.0259,0.0081,279530,2021-08-07 02:37:35:026
0.8799,-9.8665,-0.5387,0.7823,-9.759,-0.5666,0.0975,-0.1077,0.0306,-0.002,-0.0071,-0.0035,280029,2021-08-07 02:37:35:525
0.7877,-9.8294,-0.571,0.8016,-9.7569,-0.5743,-0.0131,-0.0724,0.0032,-2.00E-04,0.0026,-0.0029,280530,2021-08-07 02:37:36:026
0.7901,-9.8414,-0.5519,0.787,-9.7593,-0.5547,0.0036,-0.082,0.0026,0.0011,-0.0132,-0.0029,281029,2021-08-07 02:37:36:525
0.7374,-9.8665,-0.4178,0.7871,-9.7609,-0.5257,-0.0535,-0.1054,0.098,-0.0038,0.0863,-0.009,281529,2021-08-07 02:37:37:025
0.8475,-9.8031,-0.5531,0.7845,-9.7609,-0.5294,0.0596,-0.0424,-0.0246,-2.00E-04,-0.001,0.0062,282030,2021-08-07 02:37:37:526
0.8428,-9.8617,-0.5279,0.7411,-9.7662,-0.4924,0.105,-0.0952,-0.0373,-0.0093,-0.0084,0.0014,282530,2021-08-07 02:37:38:026
0.7027,-9.8114,-0.4477,0.7189,-9.7669,-0.5104,0.0181,-0.0572,0.0849,-0.005,-0.0542,0.0172,283029,2021-08-07 02:37:38:525
0.6345,-9.8138,-0.4537,0.7145,-9.7665,-0.5247,-0.2073,-0.1046,-0.0742,-0.024,-0.0084,-0.0304,283529,2021-08-07 02:37:39:025
0.8404,-9.8222,-0.4824,0.7089,-9.7656,-0.5478,0.0248,-0.0748,0.0553,0.0023,0.057,0.0105,284029,2021-08-07 02:37:39:525
0.4717,-9.8438,-0.4585,0.7315,-9.7635,-0.556,-0.0409,-0.1502,0.0153,-0.0136,0.021,-0.006,284529,2021-08-07 02:37:40:025
0.8739,-9.8641,-0.5974,0.7705,-9.7591,-0.5805,0.1357,-0.0412,-0.001,-0.0087,0.0607,-0.0139,285029,2021-08-07 02:37:40:525
0.7278,-9.8749,-0.4992,0.8057,-9.7585,-0.5419,0.0219,-0.0468,0.0651,0.0011,-0.0041,0.0093,285529,2021-08-07 02:37:41:025
0.7362,-9.8462,-0.5171,0.7486,-9.7646,-0.5116,0.0438,-0.0674,-0.0295,0.0017,2.00E-04,0.0014,286030,2021-08-07 02:37:41:526
0.7123,-9.8581,-0.5423,0.7498,-9.7647,-0.5095,-0.0376,-0.0935,-0.0328,-0.013,0.0332,-0.0084,286530,2021-08-07 02:37:42:026
0.7961,-9.8593,-0.6105,0.7613,-9.7624,-0.5355,0.0347,-0.0969,-0.0751,-0.0069,-0.0126,0.0032,287030,2021-08-07 02:37:42:526
0.7482,-9.8198,-0.6045,0.7138,-9.7646,-0.5603,0.0344,-0.0552,-0.0443,-0.0081,8.00E-04,0.0093,287529,2021-08-07 02:37:43:025
0.6943,-9.8797,-0.6237,0.6676,-9.765,-0.608,0.0267,-0.1147,-0.0157,-0.0063,2.00E-04,0.0136,288029,2021-08-07 02:37:43:525
0.6644,-9.8438,-0.6273,0.6554,-9.7633,-0.6469,0.009,-0.0804,0.0197,0.0017,0.0271,0.005,288530,2021-08-07 02:37:44:026
0.8009,-9.8438,-0.5303,0.6748,-9.7679,-0.5509,0.1261,-0.0759,0.0206,0.0218,-4.00E-04,0.005,289029,2021-08-07 02:37:44:525
0.7051,-9.8976,-0.583,0.7096,-9.7689,-0.4847,-0.0045,-0.1287,-0.0983,0.0011,0.054,-0.0084,289529,2021-08-07 02:37:45:025
0.674,-9.8641,-0.4417,0.7395,-9.7687,-0.4423,-0.0655,-0.0954,5.00E-04,0.0066,-0.0126,-0.0115,290029,2021-08-07 02:37:45:525
0.8918,-9.8474,-0.4417,0.7867,-9.768,-0.3703,0.1052,-0.0793,-0.0715,-0.0081,0.0332,0.0038,290529,2021-08-07 02:37:46:025
0.68,-9.8485,-0.3184,0.7211,-9.7737,-0.3548,-0.0412,-0.0749,0.0364,0.0115,-0.0071,0.0154,291030,2021-08-07 02:37:46:526
0.6381,-9.8701,-0.3783,0.6692,-9.7777,-0.346,-0.0311,-0.0924,-0.0323,-0.0032,-0.0065,-0.0041,291530,2021-08-07 02:37:47:026
0.7111,-9.8569,-0.3735,0.6901,-9.7763,-0.3438,0.021,-0.0806,-0.0297,-0.005,-0.0035,-0.0109,292029,2021-08-07 02:37:47:525
0.6069,-9.8402,-0.4513,0.7141,-9.7733,-0.3786,-0.1072,-0.0669,-0.0727,-0.0069,0.0081,-0.0072,292529,2021-08-07 02:37:48:025
0.8068,-9.8833,-0.4345,0.7355,-9.7701,-0.4185,0.0713,-0.1132,-0.0161,-0.0026,-0.0713,0.0014,293030,2021-08-07 02:37:48:526
0.4812,-9.8186,-0.4381,0.7434,-9.7673,-0.467,-0.2622,-0.0513,0.0289,-0.0026,-0.0865,-0.0115,293529,2021-08-07 02:37:49:025
0.759,-9.8581,-0.4262,0.7574,-9.7669,-0.4519,0.0015,-0.0912,0.0257,-2.00E-04,0.0411,0.005,294030,2021-08-07 02:37:49:526
0.6572,-9.8366,-0.346,0.729,-9.7704,-0.4218,-0.0718,-0.0662,0.0758,0.0029,-0.0572,0.0062,294530,2021-08-07 02:37:50:026
0.7159,-9.821,-0.4393,0.6866,-9.7754,-0.3757,0.0293,-0.0456,-0.0637,-0.0014,0.0814,0.0026,295029,2021-08-07 02:37:50:525
0.729,-9.8713,-0.2646,0.6784,-9.7776,-0.329,0.0506,-0.0937,0.0644,-0.002,-0.0517,1.00E-04,295529,2021-08-07 02:37:51:025
0.7171,-9.8641,-0.3735,0.7175,-9.7736,-0.364,-4.00E-04,-0.0905,-0.0094,-0.0075,0.0387,-0.0219,296030,2021-08-07 02:37:51:526
0.7015,-9.8653,-0.2897,0.747,-9.7697,-0.406,-0.0455,-0.0956,0.1163,-0.0142,0.0142,0.0038,296530,2021-08-07 02:37:52:026
0.4046,-10.0317,-0.3484,0.2569,-9.7906,-0.4981,0.1477,-0.2411,0.1497,0.0896,-0.0322,-0.1489,297029,2021-08-07 02:37:52:525
1.2893,-10.2017,1.081,0.8379,-9.7406,0.7675,0.4514,-0.4611,0.3135,-0.071,0.0625,-0.5955,297529,2021-08-07 02:37:53:025
3.0394,-10.4244,3.6619,0.6051,-9.2671,3.1504,2.4344,-1.1573,0.5115,1.1477,2.046,0.173,298030,2021-08-07 02:37:53:526
1.0211,-1.2043,4.9045,3.0671,-1.5637,9.1825,-2.046,0.3595,-4.2779,1.0182,0.0265,0.1272,298530,2021-08-07 02:37:54:026
0.8152,0.0599,10.0365,1.4738,-0.7172,9.6687,-0.6586,0.7771,0.3678,0.2912,0.8548,-0.0781,299029,2021-08-07 02:37:54:525
0.4944,2.0135,7.8973,-0.5276,0.8566,9.7549,1.022,1.1569,-1.8576,-0.0667,-0.7109,0.3526,299529,2021-08-07 02:37:55:025
-0.4393,0.8559,9.1435,0.6759,0.4213,9.7743,-1.1153,0.4347,-0.6308,-0.1761,-0.2002,-0.108,300030,2021-08-07 02:37:55:526
0.4106,0.7925,9.6403,0.474,0.6801,9.7715,-0.0634,0.1124,-0.1313,0.0444,0.0399,0.0105,300529,2021-08-07 02:37:56:025
0.2957,0.899,9.736,0.4046,0.7798,9.7672,-0.1089,0.1192,-0.0312,-0.0185,-0.0517,0.0099,301030,2021-08-07 02:37:56:526
