ACCELEROMETER X (m/s²),ACCELEROMETER Y (m/s²),ACCELEROMETER Z (m/s²),GRAVITY X (m/s²),GRAVITY Y (m/s²),GRAVITY Z (m/s²),LINEAR ACCELERATION X (m/s²),LINEAR ACCELERATION Y (m/s²),LINEAR ACCELERATION Z (m/s²),GYROSCOPE X (rad/s),GYROSCOPE Y (rad/s),GYROSCOPE Z (rad/s),Time since start in ms ,YYYY-MO-DD HH-MI-SS_SSS
1.6986,1.3283,7.0998,1.3923,2.1992,9.4549,0.239,-0.876,-1.7939,0.6817,-0.035,0.3251,15,2021-05-19 16:30:54:431
-0.3003,2.3495,7.4195,-0.94,2.955,9.3035,-0.807,4.00E-04,1.339,-0.0641,-0.5154,0.2862,515,2021-05-19 16:30:54:931
0.0323,2.6892,10.9866,-0.5112,4.3556,8.7714,0.8482,-0.2409,0.9526,-0.0594,0.033,0.4493,1014,2021-05-19 16:30:55:430
1.1324,4.1749,10.4611,-0.302,4.2144,8.8497,-0.5431,0.3624,0.2033,0.4714,-0.4152,0.2851,1514,2021-05-19 16:30:55:930
-2.782,4.5281,6.5145,-0.901,4.0817,8.8712,-1.0443,-1.0017,-1.8377,0.5447,0.3961,0.4867,2014,2021-05-19 16:30:56:430
-3.5539,4.3424,5.4984,-0.7797,2.3709,9.4837,1.8745,0.3107,0.5884,-1.5968,0.3744,-0.5658,2515,2021-05-19 16:30:56:931
-4.0053,2.7,5.9806,-2.4123,3.9951,8.625,0.1947,0.7335,1.6995,-0.6896,-0.8227,-0.5597,3014,2021-05-19 16:30:57:430
0.8656,2.3076,5.8274,-1.2342,-1.2336,9.6501,4.0066,-2.6995,2.0328,1.59,-0.97,-0.9603,3515,2021-05-19 16:30:57:931
-0.0048,2.8642,5.5487,-0.0501,4.1052,8.9059,0.7992,-2.2292,1.8825,0.5626,0.5056,-0.0712,4014,2021-05-19 16:30:58:430
1.3038,3.6063,10.235,-0.3992,3.8879,8.9942,1.2123,-0.3777,2.1065,-0.4119,0.1829,-0.087,4515,2021-05-19 16:30:58:931
-2.5531,6.7244,6.8833,-1.1187,5.549,8.0079,0.0877,-0.1558,0.8847,-0.1862,-1.0303,-0.2075,5014,2021-05-19 16:30:59:430
-1.6496,5.1506,9.5851,-3.0597,4.313,8.2587,1.9732,0.2956,3.9843,0.2689,0.6192,-0.0843,5515,2021-05-19 16:30:59:931
-2.8908,2.1829,12.8303,-2.2228,1.952,9.3498,-0.4595,2.0043,1.9746,-0.9832,-0.4998,0.3002,6015,2021-05-19 16:31:00:431
-0.7899,4.2814,12.932,-0.7001,3.6789,9.0634,-0.3003,-0.4192,-2.318,0.071,0.2257,0.6321,6515,2021-05-19 16:31:00:931
-2.2528,3.9978,9.2378,-1.6446,3.1696,9.1334,0.1951,0.3619,-3.0657,-0.2572,0.4809,0.4733,7015,2021-05-19 16:31:01:431
-0.9024,2.7885,6.1364,-0.964,3.1602,9.2333,0.2701,0.0471,-3.0168,0.3152,-0.5708,0.2598,7515,2021-05-19 16:31:01:931
-0.4546,0.3933,9.0906,-0.81,0.3525,9.7668,1.9422,-0.6248,-0.0034,0.0759,-0.0664,-0.5012,8014,2021-05-19 16:31:02:430
1.6663,-3.1606,13.8571,-0.083,-0.5533,9.7907,-2.663,-1.0916,2.5959,1.6194,0.0104,1.2076,8514,2021-05-19 16:31:02:930
2.5259,2.5576,9.2282,-0.1274,3.1104,9.2994,1.2818,-1.5129,2.6645,-0.3657,0.4685,-0.149,9015,2021-05-19 16:31:03:431
0.8321,1.7773,11.9396,1.5888,2.9346,9.2214,0.5958,1.1188,3.6965,0.2127,-0.5708,-0.8124,9515,2021-05-19 16:31:03:931
5.2038,6.6921,9.2186,4.7516,3.8124,7.685,-1.9359,-0.1619,1.6905,-0.369,-0.4374,0.3138,10015,2021-05-19 16:31:04:431
4.1707,1.0158,8.4682,5.4793,-0.0395,8.133,-1.1742,0.8896,-0.9977,-0.5916,0.5498,-0.2004,10515,2021-05-19 16:31:04:931
2.8609,0.1289,7.6636,3.3921,0.7072,9.1741,1.2758,-2.5786,2.3751,0.5632,0.1814,0.801,11015,2021-05-19 16:31:05:431
5.8705,-1.9098,11.3004,3.8482,1.0025,8.9642,2.0251,1.5062,0.1745,-0.2178,0.2456,-0.4864,11514,2021-05-19 16:31:05:930
1.0008,2.377,7.3071,0.4105,2.9268,9.3507,-0.6965,0.7644,5.1192,0.7042,0.1266,0.8714,12014,2021-05-19 16:31:06:430
-1.1145,4.8535,8.7924,-0.5261,4.2454,8.8244,-0.0811,-0.1026,-1.2878,-0.376,-0.0099,0.2407,12514,2021-05-19 16:31:06:930
0.5734,4.4489,8.2298,-0.3332,3.9561,8.9671,0.3261,0.5326,-1.4029,0.48,0.1845,0.0205,13014,2021-05-19 16:31:07:430
0.1259,4.0564,7.7764,-0.144,4.048,8.931,0.1559,0.0912,-1.3203,-0.2578,-0.4647,0.4876,13514,2021-05-19 16:31:07:930
0.5411,3.6805,5.1799,-0.3995,3.7138,9.0674,0.2409,-0.6169,-2.7309,-0.213,-0.0316,-0.3363,14014,2021-05-19 16:31:08:430
0.096,3.0808,7.0974,-0.6917,3.3164,9.2029,0.8344,-1.2206,-0.7632,0.3157,-0.2869,0.5032,14514,2021-05-19 16:31:08:930
-0.4056,2.4966,6.1101,-0.1726,3.0431,9.3209,0.9816,-0.9818,-2.3056,0.4465,0.1087,-0.4021,15015,2021-05-19 16:31:09:431
-3.1134,2.0273,7.8888,-0.6225,2.5377,9.4521,-0.2026,0.635,2.2615,0.1067,0.0046,-0.0145,15517,2021-05-19 16:31:09:933
1.3289,0.4651,13.82,0.3784,2.6433,9.4361,0.0441,0.4884,0.892,0.2127,0.3958,-0.0418,16015,2021-05-19 16:31:10:431
0.3628,4.8631,11.3853,-0.8986,3.4219,9.1462,0.361,1.1111,0.3233,0.1778,0.144,0.1646,16515,2021-05-19 16:31:10:931
-1.9259,4.005,7.8972,-0.1028,3.3305,9.2232,-1.7401,-0.66,-2.331,-0.3624,-0.9357,-0.3079,17015,2021-05-19 16:31:11:431
3.6296,2.0237,8.1604,4.4718,1.0684,8.6621,-0.9285,2.2032,-3.6422,-0.3902,0.1997,0.0411,17514,2021-05-19 16:31:11:930
2.9713,0.6006,7.9989,3.6069,0.1736,9.1176,-0.6792,0.9295,-2.5158,0.3465,0.1025,0.6585,18016,2021-05-19 16:31:12:432
3.0479,0.5285,7.6935,3.1429,0.6236,9.2684,0.444,-0.7556,-0.7412,0.4113,0.401,-0.4103,18515,2021-05-19 16:31:12:931
1.2464,1.1258,8.9315,1.6692,3.1127,9.1485,0.2569,-0.5463,0.1572,0.6518,-0.3612,0.0855,19015,2021-05-19 16:31:13:431
3.5363,2.7814,8.243,2.7851,3.5752,8.6966,2.7942,-0.3509,0.3352,-0.618,-0.08,-0.1127,19515,2021-05-19 16:31:13:931
0.3736,2.1817,11.9372,2.1695,4.1056,8.6376,-0.3341,0.7537,1.236,-0.2219,0.343,1.4318,20014,2021-05-19 16:31:14:430
4.459,6.7005,7.8601,3.5936,4.1111,8.1459,1.0425,1.5651,0.7682,-0.3964,1.3611,0.8749,20514,2021-05-19 16:31:14:930
-1.5105,5.8866,11.2442,-0.0686,4.0366,8.9371,-0.6231,1.143,1.2279,0.2133,0.5921,-0.0672,21014,2021-05-19 16:31:15:430
2.1021,7.0573,9.1253,0.7947,4.7141,8.5625,-0.2999,-0.1306,-1.6908,0.638,-0.6512,0.1206,21514,2021-05-19 16:31:15:930
0.8273,5.0474,7.5667,1.1633,4.4011,8.686,0.1347,0.5836,-2.7668,-0.0081,0.7361,-0.3667,22015,2021-05-19 16:31:16:431
4.9032,-6.7771,-1.0161,6.6514,3.9571,6.0225,-2.0072,-2.7984,-2.297,2.7259,-4.7776,4.0588,22515,2021-05-19 16:31:16:931
8.2777,-4.2117,-6.2518,6.5554,-6.1074,-3.987,-3.4504,0.2119,0.2021,0.5105,0.1881,0.0786,23015,2021-05-19 16:31:17:431
10.5664,-0.0341,-2.8355,6.937,-6.5764,-2.1905,-1.1662,7.1967,0.7288,-0.1124,1.1246,1.2365,23514,2021-05-19 16:31:17:930
0.6502,-3.6108,-0.5827,4.525,-6.6127,-5.654,1.9591,-0.4682,8.8723,0.7298,-2.4527,-0.7695,24015,2021-05-19 16:31:18:431
0.1834,-7.9418,-2.2992,-2.817,-9.3917,0.1759,2.9105,0.8104,0.3258,1.6748,0.9041,0.5563,24516,2021-05-19 16:31:18:932
0.5016,-6.9434,1.8257,-2.1254,-8.3208,-4.7346,1.2222,2.8959,7.7729,-1.6181,-0.2676,-0.4913,25015,2021-05-19 16:31:19:431
-2.6776,-7.2882,2.7858,-3.265,-9.2125,-0.7998,3.1635,1.9998,0.5735,1.3306,-3.1566,0.6159,25515,2021-05-19 16:31:19:931
-1.191,-2.8567,3.1376,-2.6087,-8.5844,-3.9588,-4.2993,-4.4024,4.1912,-1.31,-0.8056,-0.71,26015,2021-05-19 16:31:20:431
1.6842,-7.5491,-3.9344,-3.871,-8.9096,-1.3433,0.2525,4.6366,6.4251,1.3614,-0.171,0.9271,26515,2021-05-19 16:31:20:931
-7.7578,-8.904,1.9119,-3.1122,-8.7288,-3.2081,-4.8307,-0.4773,4.138,-2.3188,0.2947,-0.6405,27014,2021-05-19 16:31:21:430
-2.0671,-9.845,-0.8533,-3.2067,-9.1807,-1.266,3.7488,1.9682,5.3889,1.6084,0.8888,-0.8605,27515,2021-05-19 16:31:21:931
-9.2279,-13.2374,0.9975,0.2578,-9.7211,-1.2662,-2.516,-6.409,0.8845,-2.6755,-0.9248,-3.1848,28015,2021-05-19 16:31:22:431
7.9187,-8.9207,1.9454,6.2366,-7.0786,-2.6773,-1.743,-3.3872,6.376,1.8275,-2.1148,2.1329,28516,2021-05-19 16:31:22:932
7.4853,-15.052,3.5112,7.4575,-6.1178,1.7687,-1.2774,-5.2022,-2.9347,-0.4264,4.1733,-1.6447,29015,2021-05-19 16:31:23:431
5.3043,-4.1088,9.7729,5.514,-0.2,8.1072,-0.5508,-6.1397,6.3362,2.9805,1.2597,-0.8763,29516,2021-05-19 16:31:23:932
0.1032,2.7586,11.3937,-0.781,3.1288,9.2613,0.2475,-1.5863,1.4724,0.8434,-0.1736,-0.4687,30015,2021-05-19 16:31:24:431
-1.6878,3.7546,11.7936,-0.9553,4.3779,8.7231,0.1477,-0.1556,-0.4399,0.3981,-0.2703,0.044,30514,2021-05-19 16:31:24:930
1.8042,4.6813,10.424,0.4092,4.8112,8.5355,-1.5647,-1.6454,1.0109,0.4797,0.8411,1.4674,31014,2021-05-19 16:31:25:430
0.1738,6.6096,9.0033,0.4194,5.1476,8.3365,0.4445,0.78,1.7776,0.6666,-0.0174,0.3951,31514,2021-05-19 16:31:25:930
-0.5037,7.2727,7.2772,0.1683,4.7685,8.5676,-0.25,0.1083,-2.4395,-0.0971,0.2199,0.4168,32014,2021-05-19 16:31:26:430
2.933,5.7239,11.0501,0.0968,3.8493,9.0191,-0.9038,0.1141,-2.1895,-0.7284,-0.6787,0.0105,32515,2021-05-19 16:31:26:931
0.6849,3.8073,6.4187,2.4027,4.9413,8.1229,-1.7048,-1.0597,-1.9494,0.4997,-0.2824,0.0864,33015,2021-05-19 16:31:27:431
0.8297,3.7989,8.2597,1.4325,1.7372,9.5447,2.6317,-0.2774,1.4326,-0.1613,-0.0881,-0.9867,33515,2021-05-19 16:31:27:931
-0.3326,2.4176,9.2761,0.3695,2.3471,9.5145,-2.3,-0.4014,-2.7532,0.3091,-0.4378,0.4195,34014,2021-05-19 16:31:28:430
-4.3283,1.6836,13.7806,0.3836,2.0182,9.5891,-2.0983,-0.5648,4.0098,2.0715,0.0841,0.73,34514,2021-05-19 16:31:28:930
1.0499,2.2427,11.7553,-0.1503,2.8072,9.3951,-1.1073,0.1467,-0.6936,0.9734,-0.1839,0.536,35016,2021-05-19 16:31:29:432
-0.2201,3.9365,12.4759,1.0548,2.9521,9.2921,-0.9139,1.7113,-0.8257,0.1495,-0.3409,0.1182,35515,2021-05-19 16:31:29:931
1.9442,3.6326,14.7239,0.8751,3.5974,9.0809,-1.4763,-0.4284,0.7517,0.1997,-0.5699,-0.1035,36016,2021-05-19 16:31:30:432
-3.2007,4.4345,10.2147,-0.4103,3.516,9.1455,-0.4624,0.2951,-1.4474,0.4149,0.4749,0.0403,36515,2021-05-19 16:31:30:931
-0.0419,4.6609,7.7357,-0.1264,4.6956,8.6085,-0.4989,-1.0346,-2.5769,0.607,1.0826,0.6463,37015,2021-05-19 16:31:31:431
0.9374,4.3436,7.1668,-0.6047,4.4045,8.741,1.0207,0.1195,-2.6782,0.0524,-0.1164,-0.447,37514,2021-05-19 16:31:31:930
-0.0658,2.2439,10.1333,-0.9034,2.7022,9.3836,-1.8879,0.029,2.0574,-0.4997,-0.0394,0.2966,38014,2021-05-19 16:31:32:430
0.0876,1.4838,10.7055,-0.9971,2.865,9.3257,-1.5933,-0.6573,1.3844,-0.0808,-0.2395,0.1115,38514,2021-05-19 16:31:32:930
0.9936,1.9507,7.459,0.2653,3.4028,9.1935,0.3113,-1.804,4.6132,1.1904,-0.6405,0.0327,39015,2021-05-19 16:31:33:431
3.4693,2.6761,11.5995,0.907,4.5524,8.6385,-0.3865,-0.707,1.2023,0.493,0.1245,0.0932,39514,2021-05-19 16:31:33:930
0.0757,3.3045,13.4791,-0.1046,3.333,9.2223,0.4066,1.8362,2.5132,0.3239,0.2895,-0.0586,40015,2021-05-19 16:31:34:431
0.9111,4.4859,8.8693,0.7458,4.3522,8.7563,-0.6679,0.1766,-1.0465,-0.5327,-0.025,0.2981,40515,2021-05-19 16:31:34:931
-0.6691,4.6478,11.4823,1.6023,3.9852,8.816,1.0825,0.492,-4.1085,-0.7022,-0.4959,-0.4749,41014,2021-05-19 16:31:35:430
1.0594,4.5485,8.3761,1.4962,3.7127,8.9525,-0.5828,-1.0161,-2.2784,0.1228,-0.0993,0.1869,41514,2021-05-19 16:31:35:930
1.5646,4.8033,9.4618,1.2162,3.7584,8.9759,-0.3272,0.1455,-1.4963,0.0515,0.0286,-0.0105,42015,2021-05-19 16:31:36:431
1.3935,4.1127,9.5492,1.5669,3.6066,8.9837,0.4706,-0.9145,-1.0573,0.0531,0.0612,0.1406,42515,2021-05-19 16:31:36:931
0.2922,4.139,8.2789,0.8931,3.3341,9.1792,0.6342,0.134,-2.6348,-0.2216,0.354,-0.2416,43015,2021-05-19 16:31:37:431
0.7974,2.6498,7.3573,0.5594,2.7539,9.3954,-0.881,-0.0996,-2.7072,-0.0223,0.1614,0.2414,43514,2021-05-19 16:31:37:930
0.5148,2.8149,6.0945,-0.435,3.0411,9.3131,1.0499,-0.5055,1.5189,-0.279,-0.3213,-0.2706,44014,2021-05-19 16:31:38:430
-1.0328,3.1561,6.53,-1.1235,3.8083,8.9669,-0.9911,-0.9802,2.1124,-0.0157,0.0947,0.3251,44515,2021-05-19 16:31:38:931
-0.2177,2.9743,7.8589,-0.1977,4.4896,8.7163,1.6424,-0.612,2.9525,-0.1061,0.1471,-0.2242,45014,2021-05-19 16:31:39:430
-1.4399,6.4229,8.1927,-0.7607,4.8564,8.4857,0.1407,0.8011,-0.4451,0.3366,-0.0577,0.0064,45515,2021-05-19 16:31:39:931
-0.8569,5.5801,8.7637,-0.5834,4.5836,8.6499,-0.413,0.2766,0.9884,0.0554,0.0828,-0.0695,46015,2021-05-19 16:31:40:431
0.1092,4.2179,8.0049,-0.1729,4.3434,8.7907,0.0142,-0.3188,-0.3653,0.2033,0.141,0.2373,46514,2021-05-19 16:31:40:930
-0.4941,5.6486,4.2162,-0.1124,4.3693,8.7788,-0.4942,1.1709,-3.0192,-0.5169,0.1411,0.1248,47015,2021-05-19 16:31:41:431
0.0649,3.6266,8.0468,-0.5838,4.1989,8.843,1.5282,-0.6848,-1.0935,0.4169,0.1727,-0.5342,47514,2021-05-19 16:31:41:930
-0.7086,3.6099,7.9068,-0.8441,4.6657,8.5842,0.0812,-1.3281,0.5547,0.1978,0.2225,0.1197,48015,2021-05-19 16:31:42:431
-0.7074,3.5584,7.3669,-0.7123,4.7001,8.5774,0.6252,0.8926,0.7819,-0.2584,0.1929,-0.2578,48514,2021-05-19 16:31:42:930
-3.4092,3.4448,10.6229,-1.4266,4.7248,8.4742,-0.932,2.2161,0.6146,-0.8503,0.1978,-0.0467,49015,2021-05-19 16:31:43:431
-2.4861,6.2495,6.1496,-1.1135,3.7308,9.0006,-0.0799,2.3481,1.5301,-1.8006,-0.1338,-0.3442,49515,2021-05-19 16:31:43:931
-2.0312,6.2183,10.7198,-0.4001,4.7796,8.5537,-1.4944,1.1058,1.7051,0.135,-0.3083,0.3387,50015,2021-05-19 16:31:44:431
-0.6272,5.3252,9.9619,-0.127,5.0795,8.3877,-0.8323,-0.4405,0.826,0.4175,-0.4192,0.1245,50515,2021-05-19 16:31:44:931
-0.317,6.9006,9.0583,0.5223,5.4348,8.1462,0.4863,0.5944,0.926,0.8127,-0.3819,-0.0522,51015,2021-05-19 16:31:45:431
-0.0479,6.216,8.048,0.1816,5.3688,8.2045,-0.4309,-0.6244,-2.2714,0.122,-0.2175,0.2398,51515,2021-05-19 16:31:45:931
-0.9467,6.4828,7.337,0.0139,5.0285,8.4193,0.2226,-0.2124,-2.7509,-0.0628,-0.3221,-0.3002,52014,2021-05-19 16:31:46:430
0.5435,4.0337,3.0706,1.1501,5.9029,7.7462,-1.3631,-2.7521,-0.79,1.0285,-0.6848,0.8112,52515,2021-05-19 16:31:46:931
-0.9646,3.3476,6.4762,-0.6282,3.7289,9.0483,1.5731,0.4835,-3.5993,-1.1011,0.543,-0.4021,53014,2021-05-19 16:31:47:430
-0.9646,3.3476,6.4762,-0.6282,3.7289,9.0483,1.5731,0.4835,-3.5993,-1.1011,0.543,-0.4021,53015,2021-05-19 16:31:47:431
-0.9646,3.3476,6.4762,-0.6282,3.7289,9.0483,1.5731,0.4835,-3.5993,-1.1011,0.543,-0.4021,53015,2021-05-19 16:31:47:431
-0.9646,3.3476,6.4762,-0.6282,3.7289,9.0483,1.5731,0.4835,-3.5993,-1.1011,0.543,-0.4021,53015,2021-05-19 16:31:47:431
-0.9646,3.3476,6.4762,-0.6282,3.7289,9.0483,1.5731,0.4835,-3.5993,-1.1011,0.543,-0.4021,53015,2021-05-19 16:31:47:431
0.1666,3.0879,14.3803,-0.2622,1.9772,9.6017,-0.5771,1.4028,4.8445,-1.0287,0.2572,-0.0105,53368,2021-05-19 16:31:47:784
1.9848,1.4623,11.9982,0.0169,3.4773,9.1694,1.9663,-1.5879,1.873,0.6095,0.1332,-0.6115,53868,2021-05-19 16:31:48:284
-0.894,5.8232,9.7083,-0.348,5.4578,8.1401,-0.0548,0.2414,-0.1297,0.8149,0.0831,-2.00E-04,54368,2021-05-19 16:31:48:784
-0.3948,6.253,7.9678,-0.3409,5.4374,8.1541,-1.0213,0.2212,0.9766,0.1935,-0.0928,0.1226,54868,2021-05-19 16:31:49:284
0.2109,4.5377,12.0018,0.5789,3.6982,9.0641,-1.0109,0.859,-0.4381,0.0576,-0.2069,-0.0224,55368,2021-05-19 16:31:49:784
10.8419,-4.3983,3.2408,6.5336,-7.313,-0.0445,5.2428,1.7559,1.3121,0.0666,-2.2513,2.4588,55868,2021-05-19 16:31:50:284
19.0893,-8.4613,-0.2955,7.9987,-5.6731,0.086,3.7186,-0.2557,-2.9624,-0.3077,0.3445,-1.3709,56367,2021-05-19 16:31:50:783
-0.0921,-3.1726,3.5471,6.419,-7.3881,0.6184,-8.1653,3.918,-0.3492,0.1888,-0.381,-0.8601,56868,2021-05-19 16:31:51:284
1.4641,-4.9466,-5.5863,4.6896,-8.3701,-2.0294,4.509,2.3419,-0.5155,-0.8176,2.2133,2.7106,57368,2021-05-19 16:31:51:784
8.7182,-24.4274,-7.5855,-0.3293,-9.3428,2.9622,7.9521,-8.3555,-5.2472,1.036,0.6958,1.6427,57868,2021-05-19 16:31:52:284
-4.3965,-26.8334,-11.799,-0.745,-9.3583,-2.835,-1.7807,12.9286,3.291,1.5386,-0.7303,0.357,58368,2021-05-19 16:31:52:784
1.9382,-12.1002,-3.2163,-3.1511,-9.0455,2.1024,0.0595,0.9394,-1.6248,1.8022,0.9273,0.4313,58868,2021-05-19 16:31:53:284
-4.6552,-9.8569,-15.687,-2.6794,-8.9616,-2.9462,0.1746,7.2388,-6.9356,1.7165,-0.389,0.1712,59368,2021-05-19 16:31:53:784
-1.1168,-10.4985,-1.4973,-3.3607,-8.889,2.421,-0.7547,0.4754,-3.5079,2.171,2.1717,-0.4219,59868,2021-05-19 16:31:54:284
-5.1987,-8.0303,-16.2329,-2.3039,-8.5252,-4.2643,-0.5818,5.8663,8.468,-1.8945,-2.7532,-0.1251,60368,2021-05-19 16:31:54:784
0.181,-10.2377,-1.8852,-3.1619,-9.0201,2.1934,2.3634,-0.8605,-4.5721,1.5827,-0.0727,0.4056,60867,2021-05-19 16:31:55:283
-3.7334,-2.6267,3.5279,-2.3067,-8.455,-4.4004,-0.2567,6.4978,7.663,-1.8771,-1.948,-0.1274,61368,2021-05-19 16:31:55:784
-3.1875,-9.1244,0.5378,-2.4279,-9.4248,1.2035,2.913,0.2177,-5.8048,0.8992,-2.6141,0.5916,61868,2021-05-19 16:31:56:284
2.6228,-9.1579,1.8114,-1.4136,-9.059,-3.4795,-3.1982,-1.6894,4.8071,-1.5262,-1.3297,-1.4115,62368,2021-05-19 16:31:56:784
-1.4853,-6.4765,1.7013,-2.3179,-9.429,1.3753,3.8364,0.4028,-4.4256,1.9095,-0.7959,-0.1445,62868,2021-05-19 16:31:57:284
-0.408,-5.9354,3.8489,-1.0211,-9.1375,-3.4107,1.9887,2.1891,3.6107,-1.3683,-2.4701,-1.1841,63368,2021-05-19 16:31:57:784
-1.7656,-8.3773,5.0698,-2.4155,-9.4982,-0.3462,-2.081,-5.594,2.6733,1.9318,2.8149,1.4092,63867,2021-05-19 16:31:58:283
3.0156,-8.2217,-0.2046,-1.887,-8.6702,-4.1759,3.7921,1.8628,7.1026,-1.6632,-1.364,-1.3075,64368,2021-05-19 16:31:58:784
-3.1971,-18.4636,0.248,-2.3727,-9.5128,0.2184,0.5531,-1.6319,2.4621,3.3885,3.2485,-0.0976,64869,2021-05-19 16:31:59:285
1.1312,-7.0774,-5.0333,-1.8694,-9.2209,-2.7661,-5.7294,-4.2204,-0.26,-3.2497,1.2197,0.2927,65368,2021-05-19 16:31:59:784
1.1818,-9.4522,-2.1389,-2.0513,-9.5459,-0.9161,2.9164,6.2746,8.8362,1.6736,3.1208,0.3233,65868,2021-05-19 16:32:00:284
4.9211,-9.1843,-2.2729,-1.1382,-9.1855,-3.2407,-2.3993,1.0462,6.2775,-1.5027,-1.0279,-0.589,66368,2021-05-19 16:32:00:784
-2.8956,-17.8651,4.8637,-2.1035,-9.5266,-0.9943,-1.7093,-4.2134,2.2522,2.8447,2.0503,-0.1396,66867,2021-05-19 16:32:01:283
-6.4244,-9.3182,4.5718,-1.346,-9.5501,-1.7757,-2.711,-7.004,2.1305,-2.8688,0.4056,-1.0413,67368,2021-05-19 16:32:01:784
-3.5779,-12.955,-9.00E-04,-2.4707,-9.4728,-0.5768,-2.0638,-7.747,2.1964,4.64,4.2643,0.8761,67871,2021-05-19 16:32:02:287
-6.2928,-14.3483,2.0674,-1.5502,-9.4729,-2.0078,-7.2942,-6.5562,1.8603,-2.9675,1.0105,-0.5203,68368,2021-05-19 16:32:02:784
-0.341,-21.035,7.1839,-1.2045,-9.3331,-2.7592,3.1472,11.8122,10.4532,-2.8708,-1.1146,0.6689,68868,2021-05-19 16:32:03:284
-3.6425,-9.067,-10.7216,-3.716,-9.0122,1.069,6.6739,-0.8411,-5.2097,-2.606,-0.4543,-3.122,69368,2021-05-19 16:32:03:784
-3.2976,-21.9712,4.6795,-1.7979,-9.5987,-0.8956,-1.9061,4.3164,5.9761,-1.5607,0.9702,0.5542,69868,2021-05-19 16:32:04:284
-7.9256,-13.8455,-1.4423,-1.5869,-9.4584,-2.047,-2.965,-7.6939,2.0102,-2.8943,0.2254,-1.1583,70368,2021-05-19 16:32:04:784
0.102,-6.3401,10.9448,-2.2631,-9.3843,-1.7271,-0.4476,1.9352,5.506,3.7066,1.8988,-0.5244,70868,2021-05-19 16:32:05:284
-0.9323,-7.3672,1.512,-1.7799,-9.2426,-2.7524,-7.6896,-3.9951,0.7879,-3.2155,1.153,0.0099,71368,2021-05-19 16:32:05:784
-6.3957,-18.6386,-5.5409,-1.59,-9.6409,-0.8336,1.8793,8.0494,9.1887,-0.6318,1.247,0.3905,71868,2021-05-19 16:32:06:284
-9.1801,-13.8574,11.9192,-1.6375,-9.237,-2.8578,-3.1416,-7.3233,5.1521,-2.998,0.728,-0.8836,72368,2021-05-19 16:32:06:784
-0.8438,-12.9455,1.8401,-0.6491,-8.9615,-3.9295,-2.5042,3.138,2.9987,3.4137,1.5123,-0.5287,72872,2021-05-19 16:32:07:288
-3.5874,-11.0276,1.0908,1.0806,-9.5623,-1.888,-0.7629,-7.2274,5.7361,-2.9186,0.6947,-2.3843,73369,2021-05-19 16:32:07:785
-2.5101,-8.7078,10.94,2.8207,-9.2242,-1.7688,-3.1241,-6.3362,0.2096,0.965,0.8605,2.7864,73876,2021-05-19 16:32:08:292
-3.0416,-15.2557,4.701,-2.4829,-9.2717,2.0105,4.4915,-3.2629,-2.2316,0.0574,0.5406,0.055,74367,2021-05-19 16:32:08:783
-7.1474,-10.1085,-0.8581,0.1069,-9.4093,-2.7611,3.2716,-0.2042,-11.3563,0.0159,0.17,-0.1741,74867,2021-05-19 16:32:09:283
-1.4423,-14.0276,-2.5268,-2.4855,-9.4509,0.8201,6.0808,-5.3107,-2.8211,-1.6713,0.7645,-1.1325,75368,2021-05-19 16:32:09:784
-13.4824,-2.0569,-6.9344,-2.2494,-8.7178,-3.8871,-2.2003,-13.5051,-7.1335,0.3117,0.9062,0.9589,75868,2021-05-19 16:32:10:284
5.0073,-13.4626,1.2081,-3.8423,-8.7818,2.0706,1.6728,-3.5766,-2.8458,0.2894,1.2008,0.036,76368,2021-05-19 16:32:10:784
-9.8312,-2.3827,2.817,-2.8779,-8.6825,-3.5359,-4.6809,-1.5254,4.0246,-0.3337,0.0412,-0.2582,76868,2021-05-19 16:32:11:284
-3.8219,-15.8542,-3.4965,-3.2375,-9.2349,0.6364,6.4594,-4.1722,-2.3324,-2.2746,0.2366,-1.267,77368,2021-05-19 16:32:11:784
0.0419,-0.338,10.6768,-2.4326,-8.7912,-3.601,-3.8667,-11.3772,-7.8305,1.1835,1.1011,0.186,77868,2021-05-19 16:32:12:284
-2.8143,-16.3977,-3.0488,-3.6675,-8.7782,2.3796,2.4594,-3.2806,-4.1205,0.2679,1.105,-0.2781,78368,2021-05-19 16:32:12:784
-8.2295,-23.7547,-4.4922,-2.4196,-8.7167,-3.7862,-6.4327,-6.008,-0.0993,-0.4429,-0.142,0.0678,78868,2021-05-19 16:32:13:284
2.3644,-13.1513,-4.3965,-3.6667,-8.8637,2.0397,4.8395,-3.3271,-1.4424,-0.5182,0.4949,-0.2533,79368,2021-05-19 16:32:13:784
-7.0923,-15.5644,-17.4036,-2.7142,-8.8757,-3.1664,-0.1355,4.424,-7.9338,-0.1726,-1.8486,0.141,79868,2021-05-19 16:32:14:284
-0.2166,-16.2299,-1.2628,-3.4313,-9.1251,1.0623,4.6276,-4.3896,-3.8771,0.8767,1.0809,0.1773,80368,2021-05-19 16:32:14:784
-4.3199,-15.2103,-3.9296,-2.0709,-9.1627,-2.8153,0.0562,-7.7335,-9.9707,0.5027,0.0217,0.1351,80868,2021-05-19 16:32:15:284
3.7576,-14.0755,-3.2761,-0.8901,-9.7442,0.6555,4.994,-0.3245,-5.0521,-0.2239,-1.7608,-2.0356,81368,2021-05-19 16:32:15:784
9.8124,-6.5913,1.9214,8.8746,-1.5867,-3.8594,-4.9314,-5.4833,-1.1187,-0.144,-0.8227,-0.8169,81868,2021-05-19 16:32:16:284
10.885,-1.6522,0.6144,7.8987,-5.8096,0.1689,1.0942,4.9787,1.4961,0.0728,1.1672,0.1271,82368,2021-05-19 16:32:16:784
12.9775,-0.556,-2.0982,8.5298,-4.3384,-2.1427,-0.1268,2.0656,-2.6826,-0.1089,0.2665,0.6473,82868,2021-05-19 16:32:17:284
0.0613,-15.0712,-0.9347,-0.7522,-9.5608,2.0484,0.9992,1.2427,-0.532,1.0326,-1.0139,5.6093,83368,2021-05-19 16:32:17:784
-6.3,-23.0294,-11.5789,-2.1327,-9.1569,-2.7881,1.4925,5.4159,-10.6143,0.15,-2.2792,0.7249,83868,2021-05-19 16:32:18:284
-4.7533,-9.5435,-4.5425,-4.0449,-8.5909,2.4506,1.5067,-2.2509,-7.1423,0.5438,1.0778,0.0504,84368,2021-05-19 16:32:18:784
-7.8323,-16.0433,-6.4699,-2.5539,-8.7642,-3.5828,-1.7576,10.4196,3.9949,-2.5992,-2.1809,-0.2008,84868,2021-05-19 16:32:19:284
0.9589,-12.2557,2.5415,-3.6863,-8.6547,2.7709,0.8723,1.5352,-1.9479,1.4101,-0.7048,1.0047,85368,2021-05-19 16:32:19:784
2.7401,-7.9561,-18.4618,-2.4554,-8.5526,-4.1225,-0.2219,7.3599,7.9768,-0.4,-2.3053,-0.5861,85868,2021-05-19 16:32:20:284
-2.5819,-12.481,2.9198,-3.9347,-8.6815,2.3066,0.8547,-2.8172,-5.2545,0.9129,0.8106,0.5232,86368,2021-05-19 16:32:20:784
-9.6661,-24.3533,-8.6246,-2.5763,-8.748,-3.6064,-0.7653,10.3794,1.2611,-1.9401,-2.9608,-0.5876,86869,2021-05-19 16:32:21:285
-4.0472,-8.8944,-0.3553,-3.9147,-8.6685,2.3879,0.4519,0.8716,-2.99,2.2262,1.1627,0.3074,87368,2021-05-19 16:32:21:784
-0.8916,-1.6475,5.7879,-1.7747,-9.0437,-3.3513,0.5925,3.8952,6.8486,-2.1189,-3.0387,-0.1782,87868,2021-05-19 16:32:22:284
-2.2804,-12.5288,-2.0001,-3.9691,-8.6121,2.4995,1.9204,-0.8925,-6.4085,1.2119,-0.237,1.0195,88368,2021-05-19 16:32:22:784
-4.1883,-0.8288,1.6726,-2.6091,-8.6544,-3.8032,0.8505,8.1938,6.2609,1.0685,-1.317,-0.2228,88868,2021-05-19 16:32:23:284
-2.9841,-10.0989,-2.2322,-3.5675,-8.8986,2.0636,3.0613,0.833,-1.2184,2.156,1.4159,-0.0244,89368,2021-05-19 16:32:23:784
-3.4439,0.1816,2.6061,-2.0123,-8.8225,-3.7795,0.467,4.0226,6.9367,-2.1161,-2.3223,-0.0217,89868,2021-05-19 16:32:24:284
-4.0496,-9.8569,0.2551,-3.77,-8.76,2.2848,-0.5523,2.0675,-3.8375,1.308,-0.3506,0.8943,90367,2021-05-19 16:32:24:783
-2.4215,1.4384,4.0307,-1.89,-8.7796,-3.9392,-0.4711,7.3451,8.5367,-0.334,-2.2352,0.1365,90868,2021-05-19 16:32:25:284
0.3293,-8.9255,1.4234,-3.053,-9.1854,1.5743,4.9299,0.5074,-3.9361,1.9843,0.6816,0.0069,91368,2021-05-19 16:32:25:784
-6.4603,-3.4576,-14.7823,-2.5296,-8.866,-3.3415,2.3106,11.8012,6.8718,-1.6861,-3.2141,-0.1307,91868,2021-05-19 16:32:26:284
-6.5704,-7.5299,1.651,-3.8273,-8.6799,2.4862,1.1155,1.6592,-3.1986,1.5201,-0.1987,0.8433,92368,2021-05-19 16:32:26:784
-0.0395,-9.0838,-23.2238,-1.648,-9.1214,-3.2023,-1.0895,7.2844,7.6542,-0.6582,-2.1471,0.4273,92867,2021-05-19 16:32:27:283
-4.0926,-6.1268,-3.4436,-3.1292,-9.2186,1.1812,6.0629,1.5861,-3.5685,2.3023,1.0962,-0.3459,93368,2021-05-19 16:32:27:784
-3.3673,0.3897,-4.8682,-1.9464,-8.7142,-4.0552,0.1122,8.0686,7.322,-2.0285,-1.9332,-0.0081,93868,2021-05-19 16:32:28:284
0.0538,-9.5985,-0.4199,-2.804,-9.3048,1.3145,3.3768,0.7549,-3.0493,1.8845,0.9361,-0.1991,94368,2021-05-19 16:32:28:784
-1.4447,-1.9708,2.6444,-1.5026,-9.2224,-2.9766,-0.6669,-0.0104,4.1061,-1.4775,0.8581,-0.2375,94868,2021-05-19 16:32:29:284
0.3365,-6.9123,-5.6605,-3.0665,-9.2622,0.9894,4.3954,0.4871,-4.1807,0.0907,0.3118,0.9548,95369,2021-05-19 16:32:29:785
-3.2641,-3.1319,2.2567,-1.298,-9.3868,-2.5247,-3.7045,-1.7612,3.4604,-1.3219,0.1283,-0.8317,95868,2021-05-19 16:32:30:284
-2.3689,-8.569,1.086,-2.2794,-9.4849,-1.0058,2.1007,6.1314,6.2398,3.8774,1.5167,0.2604,96368,2021-05-19 16:32:30:784
-9.5704,-11.7123,-3.7789,-2.3223,-9.4725,-1.0245,-1.5769,-3.4494,0.3649,-2.5393,1.7939,-0.5586,96869,2021-05-19 16:32:31:285
-4.2314,-10.9917,3.4466,-2.18,-9.5526,-0.4081,1.9859,8.1904,10.0865,3.6211,-0.188,-0.2384,97368,2021-05-19 16:32:31:784
-8.3252,-15.2007,0.5115,-2.0637,-9.5612,-0.7041,-1.9228,-3.7612,-0.0111,-2.6089,1.8936,-0.3604,97868,2021-05-19 16:32:32:284
-6.7956,-9.8833,6.5348,-2.1782,-8.941,-3.3888,-5.5703,-5.4003,-2.8662,-0.7881,0.3215,0.3502,98369,2021-05-19 16:32:32:785
-3.5204,-13.8694,-0.3697,-2.4003,-9.5074,-0.1359,1.1143,-2.703,-1.3794,-0.8191,0.3769,-0.4273,98868,2021-05-19 16:32:33:284
-5.4882,-22.0334,-13.1877,-2.5391,-8.7144,-3.7126,-2.3348,-13.6444,-5.6997,-0.876,-0.1532,-0.0909,99368,2021-05-19 16:32:33:784
1.1456,-14.0516,-2.6584,-3.6091,-8.9377,1.8063,0.9066,-1.9021,-6.022,1.3324,-0.7794,0.6414,99869,2021-05-19 16:32:34:285
-0.5734,-11.26,-10.9828,-2.0224,-8.4136,-4.6143,-2.5299,5.094,6.6455,-2.4177,-1.8967,-0.0764,100368,2021-05-19 16:32:34:784
-1.4279,-7.5275,0.8393,-3.5997,-9.0983,0.6586,0.9045,2.0041,-1.4505,1.1473,-0.2109,0.2114,100868,2021-05-19 16:32:35:284
-0.1687,-0.2183,5.1894,-1.7668,-8.2227,-5.0434,-1.6925,3.0507,9.0488,-2.8817,-2.9846,0.0131,101368,2021-05-19 16:32:35:784
-0.0897,-9.1508,-1.6839,-2.8627,-9.3794,-0.0338,0.5857,1.8492,0.0531,0.4754,-1.2382,1.0872,101869,2021-05-19 16:32:36:285
-1.4853,-0.9461,3.0347,-1.7791,-8.2954,-4.9185,-0.3176,5.2658,7.4877,-1.3127,0.3774,-1.0901,102368,2021-05-19 16:32:36:784
-1.6241,-7.7788,0.5737,-2.7951,-9.3952,0.2967,0.5087,1.3815,0.8014,0.212,-4.213,1.1314,102874,2021-05-19 16:32:37:290
-2.4335,-5.423,3.0443,-1.4063,-9.2464,-2.9489,-7.975,-3.0169,3.1564,-1.3298,-0.2117,-1.1954,103368,2021-05-19 16:32:37:784
-5.3423,-9.9885,0.4322,-2.1626,-9.5236,-0.8909,2.7144,9.1615,7.5773,0.2489,-3.4223,0.8398,103868,2021-05-19 16:32:38:284
-6.5489,-10.5224,4.7991,-1.7815,-9.3621,-2.3123,-7.8733,-2.322,1.1554,-2.4965,1.5308,-0.7539,104368,2021-05-19 16:32:38:784
7.1644,1.6561,0.5354,-1.9287,-9.3719,-2.1488,-6.5987,1.4916,3.6481,1.1235,0.7862,0.3479,104869,2021-05-19 16:32:39:285
-6.6975,-14.0106,0.6933,-2.8272,-9.3262,1.0952,2.8882,-4.3562,-3.285,-2.9638,0.6406,-1.0551,105368,2021-05-19 16:32:39:784
-9.3117,-11.6046,-0.7457,-2.0956,-6.2927,-7.2236,-1.4666,3.1143,5.0011,1.5436,1.1253,-0.1906,105868,2021-05-19 16:32:40:284
1.3493,-10.6062,-1.6911,-3.0043,-8.9876,2.5233,3.7322,0.5676,-3.3742,1.1846,-0.8509,-0.3489,106369,2021-05-19 16:32:40:785
-2.3258,-1.2742,1.4713,-2.1844,-8.6123,-4.1507,-0.0089,3.3637,5.7204,-2.1186,-0.9117,-0.4893,106868,2021-05-19 16:32:41:284
-1.8852,-7.3528,5.6133,-3.8052,-8.9724,-1.0895,-1.7079,-8.8973,-3.6819,1.537,-0.4427,-0.5568,107369,2021-05-19 16:32:41:785
-4.0161,-2.9142,1.6343,-1.7808,-8.9461,-3.601,1.2569,-0.4437,1.398,-1.6604,-1.4909,-1.2163,107872,2021-05-19 16:32:42:288
-3.2115,-13.101,2.1057,-2.391,-9.4055,-1.4104,4.158,5.3559,2.9933,2.6615,-0.4569,-0.9044,108369,2021-05-19 16:32:42:785
-0.1759,-8.904,-6.137,-1.8055,-9.5339,-1.4193,-0.0424,-4.2847,3.2441,-2.3412,2.1086,-0.7888,108868,2021-05-19 16:32:43:284
5.5053,2.1159,-0.6449,-1.7675,-9.6082,-0.8541,3.9972,6.6892,6.5511,3.6665,-0.0527,-0.0154,109368,2021-05-19 16:32:43:784
-13.0968,-11.6812,4.7106,-1.2769,-9.5378,-1.8898,-4.2595,-3.6917,3.3234,-1.4187,0.0241,-0.8375,109868,2021-05-19 16:32:44:284
-9.0724,-6.9912,8.0073,-2.2433,-8.8617,-3.5509,-5.9987,-0.5249,1.4168,0.168,1.2295,0.0363,110368,2021-05-19 16:32:44:784
-8.383,-14.0228,-2.1126,-2.635,-9.3366,1.4334,4.7075,-5.2861,-1.4942,-2.2079,-0.2468,-1.0091,110868,2021-05-19 16:32:45:284
-10.9182,-9.0168,-8.7395,-1.8804,-8.9687,-3.4924,-6.5761,-0.384,3.0232,0.5397,1.7137,0.2587,111368,2021-05-19 16:32:45:784
2.0171,-16.2876,-0.4271,-2.8289,-9.2926,1.3476,1.9541,-3.7628,-3.055,0.8358,0.4447,0.3082,111868,2021-05-19 16:32:46:284
-6.3574,-4.4151,-7.5999,-1.8651,-9.0382,-3.3171,1.2345,1.701,-7.8147,1.4202,-0.8369,0.1454,112369,2021-05-19 16:32:46:785
-0.5112,-13.544,-1.5547,-2.81,-9.2443,1.6785,2.7691,-3.2868,-3.485,0.7393,1.0762,0.0968,112869,2021-05-19 16:32:47:285
1.0522,-26.7664,-7.1689,-2.0199,-8.9587,-3.4398,0.7189,-0.4173,-9.7094,0.8017,-0.6898,0.2563,113369,2021-05-19 16:32:47:785
1.2392,-14.0492,-4.1836,-3.3497,-8.9458,2.2188,-2.3882,0.5701,-1.6576,0.4142,0.627,-0.0756,113868,2021-05-19 16:32:48:284
-0.2142,-6.3353,-9.0912,-1.5877,-8.4725,-4.6762,-1.0339,6.0862,6.1076,-1.7618,-1.4804,-0.1145,114368,2021-05-19 16:32:48:784
-3.1923,-6.1005,0.8752,-3.1891,-8.9447,2.4479,-0.3483,2.1969,-1.0238,2.1969,1.3063,-0.1151,114868,2021-05-19 16:32:49:284
-2.0097,-0.5198,3.1448,-1.3827,-8.44,-4.7984,-1.4218,5.6204,6.9335,-2.435,-1.9588,-0.1225,115368,2021-05-19 16:32:49:784
1.0499,-11.406,-0.8533,-2.7382,-9.407,0.4261,3.647,1.1987,-1.013,0.2886,-1.2408,1.1179,115868,2021-05-19 16:32:50:284
-1.6531,-4.0537,2.5175,-1.8017,-8.4075,-4.7157,-0.3352,5.4624,7.5243,-1.3781,-0.4213,-1.4616,116369,2021-05-19 16:32:50:785
-3.9826,-7.008,0.9805,-2.6443,-9.3807,1.086,3.1333,0.8874,-2.5191,1.2864,-2.1552,0.4998,116868,2021-05-19 16:32:51:284
-1.2365,-6.0838,2.4817,-1.1147,-8.9606,-3.8256,0.2,1.177,3.5847,-2.0986,-2.4608,-1.0186,117368,2021-05-19 16:32:51:784
-0.0802,-7.4318,-2.857,-2.9894,-9.3129,-0.71,-2.1828,-6.562,1.3369,2.8386,1.9274,0.6684,117868,2021-05-19 16:32:52:284
-2.4024,-4.4919,3.7146,-1.8492,-9.2661,-2.625,-4.9385,-5.5301,1.4567,-2.3518,0.2598,-0.6858,118368,2021-05-19 16:32:52:784
1.0475,-6.7158,0.3413,-2.8932,-9.3698,-0.0771,-1.8227,-4.3562,-0.7416,0.9913,0.564,0.8851,118868,2021-05-19 16:32:53:284
-1.6699,-3.7567,2.3812,-1.3663,-9.2576,-2.9326,-7.9721,-1.1073,4.6723,-1.5305,-1.289,-1.5972,119368,2021-05-19 16:32:53:784
-3.0081,-8.6097,2.5247,-1.9011,-9.594,-0.7148,3.2378,4.4106,6.4515,3.7057,1.6039,-0.1345,119869,2021-05-19 16:32:54:285
1.8975,-7.3696,1.9382,-1.1476,-9.2394,-3.0802,-3.888,2.1222,5.2153,-3.0654,0.9302,-0.3283,120368,2021-05-19 16:32:54:784
-4.6074,-12.8566,2.4194,-2.5098,-9.4458,-0.8048,-0.5977,-4.3144,1.3929,2.1939,2.4426,0.2949,120869,2021-05-19 16:32:55:285
-11.8041,-12.4522,3.1089,-2.0067,-9.3015,-2.372,-4.9489,-6.29,1.0109,-0.9981,-0.7703,-1.4792,121368,2021-05-19 16:32:55:784
4.203,-10.9917,-6.3981,-2.94,-9.3493,0.3411,-2.1602,-2.3587,1.3547,2.9767,0.0518,-0.0754,121868,2021-05-19 16:32:56:284
-1.0905,-5.2866,2.7715,-0.6598,-9.2451,-3.2036,-0.9646,1.9439,3.7432,-2.0557,0.1884,-0.7733,122368,2021-05-19 16:32:56:784
0.2767,-10.1563,1.8473,-2.5435,-9.4702,-0.1247,-1.3378,-2.4572,-0.9205,0.4899,0.0907,0.9827,122875,2021-05-19 16:32:57:291
-1.2676,-5.569,1.8066,-1.7538,-9.3383,-2.427,-6.4007,-7.6288,-0.7259,-0.9868,-0.3804,-1.3162,123369,2021-05-19 16:32:57:785
-1.0639,-5.502,-1.9881,-2.8762,-9.3559,0.6039,0.9526,3.3375,-0.5979,1.9773,0.0362,0.1388,123868,2021-05-19 16:32:58:284
-1.7273,-1.2144,2.872,-0.9663,-9.2823,-3.0127,-7.4446,-0.9987,5.4185,-2.5452,0.576,-0.5794,124369,2021-05-19 16:32:58:785
-0.6787,-7.7812,-1.1429,-2.5845,-9.4505,-0.4219,0.737,-0.8878,2.7022,1.3107,0.276,0.9363,124868,2021-05-19 16:32:59:284
-2.9554,-8.7748,1.3828,-1.396,-8.9845,-3.6742,0.9613,1.0489,4.7421,-1.7821,-0.5316,-1.5067,125368,2021-05-19 16:32:59:784
1.1025,-10.9869,1.3923,-2.9466,-9.3492,-0.2841,-3.5483,-2.3376,-1.325,-0.0556,-2.2646,1.4428,125871,2021-05-19 16:33:00:287
-0.1376,-8.9351,-2.7876,-2.0622,-9.3482,-2.1283,-3.9183,-5.3557,5.1261,-2.4916,0.8949,-0.6994,126368,2021-05-19 16:33:00:784
-6.166,-19.0119,-7.7052,-2.5314,-9.4224,-0.9899,-5.3891,5.8489,1.5412,4.2923,2.5674,0.3635,126868,2021-05-19 16:33:01:284
-6.7717,-7.7357,-0.3147,-1.6034,-9.2559,-2.8158,-9.4741,-5.2599,1.2351,-2.4941,0.5502,-0.4476,127368,2021-05-19 16:33:01:784
-0.2572,-8.9737,6.073,-2.2503,-9.5383,-0.3578,-1.675,1.897,11.7487,1.6388,2.065,0.5104,127869,2021-05-19 16:33:02:285
-4.4973,-13.3522,7.8374,-2.0793,-9.563,-0.6289,-0.8639,-3.2039,-2.8918,-2.801,0.5088,-1.2171,128368,2021-05-19 16:33:02:784
-7.4204,-14.001,-3.1612,-2.0273,-9.5778,-0.5712,0.8913,0.0288,3.8091,3.0761,1.5586,0.4458,128868,2021-05-19 16:33:03:284
-3.7956,-14.0228,3.073,-1.892,-9.4175,-1.9751,-3.7935,-5.6659,5.2717,-3.0403,1.1944,-0.5064,129368,2021-05-19 16:33:03:784
-4.6696,-12.16,-1.0041,-2.5923,-9.0649,-2.6977,-6.3736,0.2831,1.7253,0.5481,0.7516,0.3456,129871,2021-05-19 16:33:04:287
-6.4603,-14.2167,3.1065,-2.743,-9.383,0.7778,3.593,-5.8725,-1.378,-2.2891,0.2355,-1.0566,130368,2021-05-19 16:33:04:784
-4.6002,-12.0835,-3.7214,-2.1741,-9.4211,-1.6389,-5.0987,6.8492,3.2043,1.3811,1.5002,0.5505,130881,2021-05-19 16:33:05:297
-5.316,-15.3012,6.329,-2.6013,-9.4539,-0.1647,2.4867,-4.3032,-2.1843,-2.7962,0.9314,-1.0636,131368,2021-05-19 16:33:05:784
0.9398,-8.1787,6.1041,-2.4618,-8.8386,-3.4625,-2.8383,-7.9016,-4.1315,-0.304,-0.8886,-0.2014,131868,2021-05-19 16:33:06:284
0.6479,-13.7569,-3.1995,-2.3367,-9.52,-0.2838,3.3109,-4.1279,-1.8298,-0.1397,1.118,-0.0348,132369,2021-05-19 16:33:06:785
-1.981,-18.8085,-6.0174,-2.2834,-8.8318,-3.5993,-1.5845,1.3414,-0.0031,-0.8184,-0.2975,-0.388,132869,2021-05-19 16:33:07:285
1.6986,-14.808,-1.8876,-3.3932,-8.9769,2.0178,3.5112,-3.4056,-3.3331,-1.1892,0.667,-0.4021,133368,2021-05-19 16:33:07:784
-2.8621,-14.1209,-7.2359,-2.366,-8.7212,-3.8095,0.7554,4.2236,-4.5805,0.6735,0.2624,0.2069,133868,2021-05-19 16:33:08:284
-1.1384,-11.6453,-1.6744,-3.2191,-8.9569,2.3624,2.2948,-3.2014,-3.0789,1.2901,-0.0713,0.5075,134368,2021-05-19 16:33:08:784
0.0565,-10.3837,-14.5522,-2.4961,-8.6172,-3.9602,1.8308,4.0791,-1.2034,-0.1112,-1.8551,-0.2843,134868,2021-05-19 16:33:09:284
-2.7398,-9.5339,-6.07,-2.9527,-9.2294,1.5068,2.1138,0.1508,-1.8943,1.4327,-0.4908,0.5133,135368,2021-05-19 16:33:09:784
-3.3912,-1.4536,1.019,-2.4944,-8.753,-3.6515,-0.4059,7.2524,3.9971,0.1147,-2.2304,0.1016,135868,2021-05-19 16:33:10:284
-2.9411,-9.3924,-1.0735,-3.0854,-9.2938,0.5247,0.3092,0.3474,-2.0885,0.9047,-2.0257,0.0337,136368,2021-05-19 16:33:10:784
0.6239,-6.2683,-10.1949,-1.7635,-7.7702,-5.7171,-1.691,4.0376,5.3472,-2.6967,-1.7472,-0.1541,136868,2021-05-19 16:33:11:284
-6.1325,-8.423,-1.7007,-2.1947,-9.4059,-1.6979,6.2699,-4.6158,-3.6606,0.1651,0.9804,-0.5557,137368,2021-05-19 16:33:11:784
-5.2226,-9.5216,-3.6138,-3.3826,-9.1607,-0.9,4.2541,0.0066,-1.7711,-1.6887,0.1416,-0.4891,137868,2021-05-19 16:33:12:284
-7.2697,14.3976,-11.9812,-2.291,-8.5593,-4.2023,-16.27,-11.8928,2.541,-0.5404,0.6072,-0.0951,138368,2021-05-19 16:33:12:784
-3.8554,-12.7872,-1.8422,-2.8414,-9.2155,1.7809,2.9506,-3.0078,-2.644,0.0843,0.6742,-0.051,138869,2021-05-19 16:33:13:285
-4.9639,23.0812,-19.8841,-2.4296,-8.5555,-4.1317,-3.4854,7.4978,9.145,-1.0574,-1.4566,-0.6102,139368,2021-05-19 16:33:13:784
-2.9746,-8.2911,-3.9751,-3.884,-8.829,1.7704,3.6316,-2.5196,-6.659,1.5916,0.6843,0.1497,139868,2021-05-19 16:33:14:284
-0.8486,-5.2627,-8.409,-2.2899,-8.3201,-4.6587,-0.983,6.4921,3.5207,-0.777,-1.9182,0.0139,140368,2021-05-19 16:33:14:784
-2.103,-9.9191,-2.9459,-2.4069,-9.3626,1.6489,1.9479,-0.8136,-2.5992,2.0679,1.1556,-0.1339,140868,2021-05-19 16:33:15:284
-1.2317,1.9986,1.5601,-2.4732,-8.188,-4.797,1.2525,8.4914,8.0385,-1.9071,-2.3359,-0.0281,141368,2021-05-19 16:33:15:784
-0.8414,-7.8458,0.4298,-2.7383,-9.3534,1.0891,4.2771,-1.6766,-2.4874,-0.597,-2.8059,1.6449,141868,2021-05-19 16:33:16:284
-3.0751,-1.0681,1.232,-1.4537,-8.8117,-4.0511,1.4917,1.7985,2.89,-1.8709,-0.6907,-1.5099,142369,2021-05-19 16:33:16:785
5.1488,-10.1181,-4.4252,-2.7085,-9.3949,-0.7548,6.0149,0.3912,-4.3228,1.5558,-0.8161,0.844,142869,2021-05-19 16:33:17:285
-2.5412,-10.386,-1.9211,-1.3363,-9.3735,-2.5537,-14.9558,-10.7092,-2.794,-1.9477,0.6092,-1.4092,143368,2021-05-19 16:33:17:784
0.6622,-3.8357,-6.4675,-2.6135,-9.4304,-0.6379,-0.9685,-8.0927,1.5207,1.654,-0.5287,0.8677,143868,2021-05-19 16:33:18:284
-9.2399,-9.7373,1.244,-1.6155,-9.3472,-2.488,-8.9526,-7.7403,1.0734,-1.9762,0.2833,-1.1623,144369,2021-05-19 16:33:18:785
-2.9315,-31.9735,1.2799,-2.669,-9.4219,0.525,-3.585,-14.1373,3.0965,3.8137,3.1538,1.9411,144876,2021-05-19 16:33:19:292
-0.2812,3.3368,4.6842,-0.6327,-9.2965,-3.057,-0.5767,3.1531,4.8466,-1.1637,-2.7771,-1.6823,145368,2021-05-19 16:33:19:784
0.9757,-9.1244,4.3394,-2.8974,-9.3075,1.0704,-0.4695,-0.6543,1.9313,2.573,1.8808,0.1804,145872,2021-05-19 16:33:20:288
-1.1456,-0.8145,3.7193,-1.7771,-8.7548,-4.0456,1.2687,9.4613,8.555,-0.7286,-0.9108,-1.8958,146368,2021-05-19 16:33:20:784
-1.6388,-11.7625,-1.8084,-3.1116,-8.9464,2.5398,4.2689,-0.1009,-0.0789,2.6656,1.3604,-0.0293,146868,2021-05-19 16:33:21:284
0.6287,1.5915,5.0865,-1.1763,-9.0933,-3.4783,-0.1723,7.3279,7.3421,-1.9263,-2.7891,-0.0388,147369,2021-05-19 16:33:21:785
0.7149,-15.1528,0.9135,-2.9665,-9.0212,2.447,0.9028,3.634,-2.2169,1.2535,0.4216,0.7961,147868,2021-05-19 16:33:22:284
0.2886,-12.8207,-26.0967,-0.8837,-9.3041,-2.9703,-0.6854,4.9531,6.3952,-2.045,-3.9699,-0.456,148369,2021-05-19 16:33:22:785
-4.7246,-12.7179,3.0897,-3.7628,-8.6171,2.7851,2.1604,-2.1,-7.4528,1.5338,0.6994,0.8973,148871,2021-05-19 16:33:23:287
-2.8238,-25.7202,-8.4353,-2.1637,-8.8337,-3.668,1.3851,10.5224,6.615,0.3314,-0.7617,0.3725,149369,2021-05-19 16:33:23:785
3.6428,-16.7255,-1.2099,-3.7269,-8.6015,2.8801,0.2266,1.4517,-5.8197,1.6986,0.5409,0.9679,149868,2021-05-19 16:33:24:284
-14.2484,-1.5852,2.5798,-2.2946,-8.7652,-3.7517,-4.8822,-8.7858,-4.1961,0.284,-1.2483,0.3102,150369,2021-05-19 16:33:24:785
1.7563,-13.4288,-3.5276,-3.4476,-8.9758,1.9284,6.7422,-4.7203,-4.4813,-0.3099,1.3362,-0.1458,150868,2021-05-19 16:33:25:284
-9.0485,-10.4507,4.3995,-2.6914,-8.359,-4.365,-3.2401,-4.7596,-7.4965,0.6415,2.0292,0.2937,151369,2021-05-19 16:33:25:785
-9.4313,-15.3634,-5.3255,-2.008,-9.5978,-0.1435,2.7576,-5.0749,-1.1582,0.9699,2.3945,-0.5291,151868,2021-05-19 16:33:26:284
2.5247,-5.1263,5.1105,-2.3985,-9.159,-2.5557,-8.2308,-9.2407,10.5189,-0.0861,1.6988,0.7136,152368,2021-05-19 16:33:26:784
-2.752,-5.8421,2.9964,-2.2456,-9.5072,-0.8606,1.9629,-6.7431,4.2987,-3.239,-0.274,-0.6463,152868,2021-05-19 16:33:27:284
-1.768,-9.6392,10.4348,-2.1795,-9.5196,-0.893,-0.1451,-2.4054,0.7027,1.5997,3.4652,0.4887,153368,2021-05-19 16:33:27:784
1.8233,-4.1901,2.4673,-0.991,-9.228,-3.1673,1.3378,4.9414,4.2924,-1.6633,-3.4459,-1.7495,153871,2021-05-19 16:33:28:287
1.4713,-9.6535,1.4139,-2.8312,-9.1428,2.1365,1.2846,0.5017,5.2584,0.8152,0.8405,0.9373,154368,2021-05-19 16:33:28:784
-2.7664,2.1781,-1.2386,-0.9258,-9.3303,-2.8738,0.5016,3.8054,4.271,-1.5085,-4.1263,-1.3961,154868,2021-05-19 16:33:29:284
-7.6813,-9.4618,-1.3633,-3.7978,-8.4852,3.1224,1.8994,-1.6983,-5.6109,1.2414,1.4182,0.4122,155380,2021-05-19 16:33:29:796
-26.9946,-16.1916,10.5763,-1.9584,-8.7736,-3.919,-1.9185,3.3228,-11.6034,-0.5391,0.633,0.6018,155868,2021-05-19 16:33:30:284
-4.4782,-15.7442,4.7871,-3.7127,-8.5736,2.98,8.5951,-7.4638,-4.0714,0.6498,2.1922,-0.2321,156368,2021-05-19 16:33:30:784
-0.772,-24.1427,35.604,-1.3993,-8.8874,-3.9022,-5.5477,-10.2554,-8.1059,0.0959,2.0135,0.6425,156868,2021-05-19 16:33:31:284
-10.9397,-12.1552,10.2793,-1.8992,-9.3817,-2.1323,-9.7251,-7.5399,-1.8135,-3.221,0.6389,0.3108,157368,2021-05-19 16:33:31:784
-2.1942,-18.0951,-2.304,-2.7818,-9.4008,0.2397,-0.1258,1.441,2.0799,0.635,-1.0673,0.9709,157868,2021-05-19 16:33:32:284
3.7648,-6.9577,-4.0687,-0.9255,-9.1672,-3.358,-6.6365,-1.1625,8.5918,-2.0298,-1.6942,-1.8831,158369,2021-05-19 16:33:32:785
-2.2134,-10.7333,-11.6004,-3.6992,-8.5502,3.0627,-1.0999,0.6029,-3.6337,4.2604,2.1432,-0.5754,158868,2021-05-19 16:33:33:284
-0.8581,3.4089,5.0267,-2.5072,-8.3536,-4.4835,-0.4486,8.223,3.9037,-2.5398,-4.3314,-0.007,159368,2021-05-19 16:33:33:784
3.894,0.8495,3.37,-3.7916,-8.6649,2.591,-4.1509,-9.758,-15.2766,1.1485,1.599,1.4356,159868,2021-05-19 16:33:34:284
-0.25,-11.0731,-14.4733,-0.4811,-9.0739,-3.6881,-3.909,5.9324,8.5246,-1.3825,0.3952,2.1473,160368,2021-05-19 16:33:34:784
-6.6206,1.2422,3.9398,-0.0686,-8.3016,-5.22,-6.2009,-17.9066,1.7796,-3.3135,-1.5438,-1.58,160870,2021-05-19 16:33:35:286
-5.359,-5.5211,-1.1405,-1.716,-8.4277,-4.7117,-2.141,9.1028,-0.5511,-2.8948,2.0156,-0.1245,161368,2021-05-19 16:33:35:784
-4.3319,-6.9888,-8.8448,-1.1902,-9.2941,-2.8936,6.0611,10.5353,0.4174,4.8144,3.0726,0.3387,161871,2021-05-19 16:33:36:287
-8.761,-19.6681,-5.1601,-3.5191,-8.0269,-4.3995,-1.3958,2.7774,-9.7079,-1.4783,-2.4128,0.3964,162368,2021-05-19 16:33:36:784
6.6185,-22.9813,1.8138,-2.7889,-9.3639,0.8423,4.52,-5.7279,-3.8911,-3.0735,-0.6768,-1.5827,162868,2021-05-19 16:33:37:284
3.7935,-2.9333,-1.0065,-2.3945,-8.5287,-4.2068,-6.4812,-8.6173,7.0329,-0.0527,1.8452,-0.1246,163368,2021-05-19 16:33:37:784
-7.2239,-11.3677,-0.7816,-2.0313,-9.5484,-0.9342,3.0391,-5.7142,0.1174,-3.4136,-0.5742,-1.5123,163868,2021-05-19 16:33:38:284
1.3445,-0.3332,-4.7701,-2.8447,-9.3736,-0.4618,-1.7127,-5.5281,2.8465,2.8249,2.2702,1.8877,164369,2021-05-19 16:33:38:785
-1.0376,-2.4233,5.9243,-0.7977,-9.3315,-2.908,-6.0309,-2.4429,5.8541,-3.6527,-0.7387,-0.6617,164868,2021-05-19 16:33:39:284
0.4442,-6.2037,4.1312,-2.5577,-9.4309,0.8282,-0.9012,-5.3277,-0.152,2.1674,1.9179,1.9222,165369,2021-05-19 16:33:39:785
-0.8462,-1.0801,6.0344,-1.1258,-9.1605,-3.3147,-4.9706,-2.0941,6.4958,-1.3129,-3.9517,-1.7486,165868,2021-05-19 16:33:40:284
0.0227,-7.1133,-1.0208,-2.5395,-8.8866,3.2787,2.7408,1.1901,-1.8821,2.3684,1.1583,0.2746,166368,2021-05-19 16:33:40:784
-13.9514,-18.4612,-11.9907,-1.3286,-9.0886,-3.4355,1.3137,12.5604,8.073,-1.1899,-4.0224,-1.826,166869,2021-05-19 16:33:41:285
-4.7868,-7.8915,-15.9194,-2.9249,-8.8213,3.1303,-1.9329,1.4603,-0.4369,1.5303,-0.642,1.0557,167369,2021-05-19 16:33:41:785
-11.2702,-20.5298,6.5013,-2.0771,-8.7513,-3.9078,-5.7189,-11.0017,-2.1927,0.2581,-1.4815,1.0583,167868,2021-05-19 16:33:42:284
5.9148,-17.0465,1.3851,-2.1195,-9.3551,2.0396,7.8264,-3.9367,-4.2617,-2.0098,-0.2364,-0.6936,168368,2021-05-19 16:33:42:784
-3.1636,-6.7878,-6.8001,-1.8338,-8.5103,-4.5148,-0.4033,-1.0486,-2.3693,0.097,-1.931,-0.2391,168870,2021-05-19 16:33:43:286
1.6938,-2.8519,6.2644,-1.2622,-9.4737,-2.197,1.9153,-5.4056,6.8163,-2.3811,-0.135,-0.9967,169368,2021-05-19 16:33:43:784
-4.5069,-18.2315,4.0953,-1.1128,-9.5863,-1.7419,-2.6784,7.1342,5.2609,0.0287,0.9523,0.2501,169868,2021-05-19 16:33:44:284
-9.2662,-16.2685,-5.6366,-1.4688,-9.5581,-1.6298,-1.7998,-5.989,3.2584,-3.1931,0.2443,-1.2385,170368,2021-05-19 16:33:44:784
-2.3426,-10.774,14.0405,-0.8523,-9.5408,-2.1017,-1.2789,5.1884,5.5587,3.9896,3.0669,0.7439,170868,2021-05-19 16:33:45:284
-0.6882,-4.7169,7.0854,-0.8768,-9.1925,-3.3015,-3.8162,0.329,7.0399,-1.8742,-1.7994,-0.4812,171368,2021-05-19 16:33:45:784
0.6574,-5.7511,-12.4863,-1.9801,-9.6016,0.2408,-1.1965,-3.9423,-0.4486,3.8326,2.2711,-0.4036,171868,2021-05-19 16:33:46:284
0.0323,-5.3489,6.0634,-1.4068,-9.2439,-2.9566,-7.9536,-4.846,6.1083,-3.1028,-1.6194,0.2894,172369,2021-05-19 16:33:46:785
0.0852,-8.0303,14.4978,-1.7101,-9.5077,1.6882,2.0765,2.5083,-1.5734,0.6414,-0.5942,0.9754,172871,2021-05-19 16:33:47:287
3.2357,-8.1954,-2.3952,-0.6066,-9.0811,-3.6519,2.4679,2.7265,5.2791,-1.3747,-2.5141,-1.6473,173369,2021-05-19 16:33:47:785
0.8943,-6.9266,2.642,-1.4239,-9.6488,1.0217,1.2928,-2.218,6.0265,2.4464,5.1769,0.4771,173868,2021-05-19 16:33:48:284
2.6922,-6.6823,2.3955,-0.5648,-9.2038,-3.3379,-1.4183,1.0769,4.5961,-1.0013,-3.3346,-1.2577,174368,2021-05-19 16:33:48:784
-5.0575,-7.1659,2.4338,-1.8871,-9.2258,2.7375,3.4484,-0.1037,-0.2142,0.9596,-1.3878,0.7773,174868,2021-05-19 16:33:49:284
-1.5763,-2.653,6.0296,-0.9083,-8.8908,-4.0373,0.2446,8.2617,9.79,-1.1177,-2.6492,-1.9416,175369,2021-05-19 16:33:49:785
-5.2801,-8.15,-0.4822,-1.578,-9.5529,1.5562,3.0987,0.9252,-5.7624,2.3212,2.3505,-0.2862,175868,2021-05-19 16:33:50:284
-2.1293,-1.2048,3.7911,-0.9716,-9.0581,-3.63,-1.2071,6.9503,5.4203,-0.4184,-1.8759,-0.1507,176368,2021-05-19 16:33:50:784
1.069,-9.8761,-1.89,-1.6287,-9.2707,2.7517,2.5035,0.0553,-1.4269,1.545,-2.6616,0.1875,176868,2021-05-19 16:33:51:284
-0.8366,1.2613,3.3987,-1.1933,-8.7789,-4.2045,0.3132,6.0843,8.8117,-1.536,-2.8174,-1.22,177368,2021-05-19 16:33:51:784
1.7922,-10.3956,-2.0719,-1.7072,-9.5266,1.5809,1.5586,2.6238,-3.6713,2.6987,3.5338,-0.4832,177868,2021-05-19 16:33:52:284
-0.6356,-3.417,5.496,-0.6914,-8.9688,-3.9054,1.3871,3.038,5.1815,-0.6258,-1.344,0.0319,178368,2021-05-19 16:33:52:784
-2.0575,-10.8864,-1.526,-1.7327,-9.4317,2.0522,1.3997,0.9054,-1.0363,1.9959,-0.3288,-0.3748,178871,2021-05-19 16:33:53:287
-2.4718,-6.4669,-12.4863,-1.3902,-8.702,-4.3026,-0.8563,5.2696,8.6144,-0.9954,-1.4343,-0.2352,179368,2021-05-19 16:33:53:784
-6.1349,-10.9869,-7.2479,-1.4305,-9.6498,1.0031,1.5617,3.0875,-1.1106,1.8058,-2.6155,0.1953,179868,2021-05-19 16:33:54:284
-1.8876,-0.9173,0.8847,-1.5447,-8.7758,-4.095,1.2289,8.8833,7.3202,-0.5218,-1.973,-0.2924,180368,2021-05-19 16:33:54:784
-4.1357,-6.9458,1.5383,-1.911,-9.2699,2.5666,3.2553,0.7745,-1.6916,2.1224,-1.6681,0.1917,180868,2021-05-19 16:33:55:284
0.0299,1.0002,4.701,-0.768,-8.8344,-4.1875,-0.4267,6.5846,9.0903,-1.2026,-3.3342,-1.2199,181368,2021-05-19 16:33:55:784
-0.5351,-12.9861,-9.3069,-2.0818,-9.1997,2.6836,-1.9243,1.008,-3.8653,2.1708,1.2029,0.1197,181868,2021-05-19 16:33:56:284
0.37,0.5958,3.6691,-1.1702,-8.9021,-3.9438,0.7096,9.3092,7.1008,0.3335,-1.2701,-0.2068,182369,2021-05-19 16:33:56:785
1.1121,-13.7833,-0.8055,-1.9227,-9.2613,2.5888,2.2469,0.8783,-0.6507,0.7425,1.9289,-0.1997,182868,2021-05-19 16:33:57:284
-3.2306,-1.0537,-7.3938,-1.1764,-8.7923,-4.181,0.0877,6.2078,8.9538,-1.2197,-2.6607,-0.3825,183368,2021-05-19 16:33:57:784
-5.6608,-11.1329,-3.3694,-2.1336,-9.1689,2.7475,0.0405,-3.0323,-8.925,1.3736,-0.0605,0.8277,183872,2021-05-19 16:33:58:288
-1.2317,-6.3664,-16.7118,-1.4965,-8.9833,-3.6375,-0.0117,8.5627,2.2207,0.923,-1.063,0.3902,184368,2021-05-19 16:33:58:784
2.5247,-12.7274,-5.2801,-2.1882,-9.179,2.6699,-1.0605,1.8804,-1.4826,2.4286,1.6858,-0.199,184868,2021-05-19 16:33:59:284
-1.9379,-7.2616,-16.0104,-1.6995,-8.8192,-3.9376,-3.2298,-4.6145,-11.474,-0.1593,-1.599,-0.3774,185368,2021-05-19 16:33:59:784
-7.4396,-8.9471,0.0565,-2.059,-9.1719,2.7943,-0.7505,-3.1595,-9.5523,1.0982,0.1645,0.6661,185868,2021-05-19 16:34:00:284
-5.0551,-11.9327,8.3593,-1.6688,-8.9482,-3.649,-0.4464,5.9966,-3.3269,0.2176,-1.2018,0.2194,186368,2021-05-19 16:34:00:784
3.3314,-14.7218,-1.9475,-2.2724,-9.1313,2.7614,-0.3812,0.6164,-5.5189,1.4334,0.0886,0.6706,186868,2021-05-19 16:34:01:284
-5.3997,-20.834,-3.7358,-1.7336,-8.6678,-4.2467,-6.0749,-11.1257,-2.5305,0.4215,-1.1269,0.6593,187368,2021-05-19 16:34:01:784
-1.2628,-15.4902,6.4798,-1.743,-9.4101,2.1406,8.476,-4.6354,-2.9011,-2.7994,-1.2009,-1.0672,187880,2021-05-19 16:34:02:296
-4.861,-12.9766,-7.9134,-1.9326,-8.9051,-3.6242,-4.3068,-5.522,-9.3847,0.5539,-0.7927,0.5467,188368,2021-05-19 16:34:02:784
0.88,-13.7402,-4.5999,-0.9858,-9.7522,0.3038,2.291,-4.1585,-3.447,-0.68,0.3381,-0.3726,188868,2021-05-19 16:34:03:284
0.9781,-25.4522,-7.1521,-0.9378,-9.0807,-3.582,-3.1772,-2.9561,-2.2858,1.0139,2.6082,-0.0704,189369,2021-05-19 16:34:03:785
-0.5877,-15.7394,7.2365,-1.8389,-9.4134,2.0438,5.5391,-4.1309,-3.5727,0.7721,2.1271,-0.4444,189868,2021-05-19 16:34:04:284
-4.5117,-7.6089,21.5866,-1.991,-8.7462,-3.9637,-3.6895,-9.236,-10.4098,-0.4229,-1.2289,0.0261,190369,2021-05-19 16:34:04:785
0.2791,-15.294,6.0153,-0.9943,-9.7558,-0.0772,2.1956,-5.7771,-2.1821,-2.1467,-0.8333,-0.6669,190869,2021-05-19 16:34:05:285
-8.9958,-11.4562,-6.6422,-1.3735,-9.0158,-3.6055,-1.8868,-4.4433,3.38,0.7504,1.2312,0.0066,191368,2021-05-19 16:34:05:784
2.3596,-14.5684,-2.6752,-1.5043,-9.6012,1.3131,4.4509,-3.7598,-3.0537,0.0038,1,-0.2775,191868,2021-05-19 16:34:06:284
-4.3415,-11.9973,-11.8373,-1.4849,-9.546,-1.6848,-7.3987,-4.2662,2.5182,0.3099,-0.1173,-0.3929,192369,2021-05-19 16:34:06:785
-6.9703,-18.0138,-6.4268,-0.4162,-9.7938,0.2807,2.6396,-4.743,-2.7298,-2.4107,-1.0119,-0.9882,192869,2021-05-19 16:34:07:285
6.7693,0.1792,-3.5539,-2.2965,-8.6383,-4.0344,-6.0639,-1.7302,3.5177,1.9897,1.4608,-0.4846,193368,2021-05-19 16:34:07:784
-0.6619,-14.4224,-0.2429,-1.5194,-9.4758,2.0176,2.9296,-4.7864,-3.6718,0.338,1.4103,-0.4383,193868,2021-05-19 16:34:08:284
3.9514,-1.7219,5.697,-1.6825,-9.3439,-2.4558,-2.7418,-0.7245,6.0785,1.7395,1.4729,0.1365,194368,2021-05-19 16:34:08:784
2.0483,-14.8176,4.0044,-0.5162,-9.7914,0.1815,0.4027,-2.6583,-1.9144,-0.1205,1.0988,-0.669,194868,2021-05-19 16:34:09:284
9.5776,-2.0498,-3.8626,-1.5441,-8.9269,-3.7546,-3.8885,0.706,6.2148,-0.3477,1.6899,-0.0185,195369,2021-05-19 16:34:09:785
0.6766,-14.5854,5.2301,-1.0367,-9.5422,-2.0107,-1.6761,-6.0164,3.9339,-2.8806,-0.4769,-1.2289,195871,2021-05-19 16:34:10:287
-3.0129,-11.8801,-7.7195,-1.3913,-9.4865,-2.0592,-1.3584,3.2921,4.0072,3.1062,2.4234,0.1996,196368,2021-05-19 16:34:10:784
-5.5098,-12.2773,6.9251,-0.8931,-9.7212,-0.9333,1.8166,-4.005,0.8051,-2.1436,-0.7509,-0.6728,196868,2021-05-19 16:34:11:284
2.254,-7.7046,8.036,-1.4892,-9.3032,-2.721,-4.6569,1.8755,7.6409,0.9596,0.2816,0.7407,197368,2021-05-19 16:34:11:784
2.5606,-8.7341,0.5115,-1.1226,-9.3482,-2.7423,-6.98,-5.7397,3.9475,-3.3606,0.702,0.2555,197871,2021-05-19 16:34:12:287
-2.3378,-8.6839,-3.3024,-0.8369,-9.769,-0.1934,4.4121,4.2299,3.3949,2.9191,4.7226,0.3244,198368,2021-05-19 16:34:12:784
-9.4986,-18.2004,-2.7805,-0.7942,-9.5126,-2.2471,-3.5819,-6.2502,3.202,-2.8473,-0.0351,-1.0534,198869,2021-05-19 16:34:13:285
-1.0089,-7.9202,-1.4495,-1.5412,-9.6742,0.4521,-0.6845,-3.8593,1.8839,0.3236,2.8635,1.078,199368,2021-05-19 16:34:13:784
5.5986,-9.6583,-1.4112,-0.9628,-9.2253,-3.1838,-6.7328,-4.0704,6.5066,-2.9771,0.3106,-0.7107,199872,2021-05-19 16:34:14:288
-3.6353,-18.1454,2.1491,-1.4251,-9.6598,-0.9101,-1.4142,0.6551,3.1356,4.1686,4.7167,-0.1078,200368,2021-05-19 16:34:14:784
-1.1647,-3.4385,5.2828,-1.1513,-9.4433,-2.3809,-4.6088,-7.0666,1.8191,-2.7273,-1.3911,0.0377,200877,2021-05-19 16:34:15:293
0.2767,-6.6248,4.7273,-1.5912,-9.6756,0.145,-0.9084,-5.2509,2.8786,0.7718,-0.2135,0.8527,201368,2021-05-19 16:34:15:784
-3.906,-9.2776,-0.0057,-1.0466,-9.2631,-3.0447,-6.7304,-4.7619,5.3613,-2.7986,0.2182,-0.7629,201868,2021-05-19 16:34:16:284
1.3588,-11.3581,6.2142,-0.9486,-9.7371,-0.6776,2.0955,2.9325,4.7164,3.6411,2.8878,-0.2188,202368,2021-05-19 16:34:16:784
-1.9355,-7.8386,-3.0751,-1.1193,-9.5107,-2.1128,-2.2681,-4.8061,2.9016,-2.3099,-1.7725,0.0053,202869,2021-05-19 16:34:17:285
-5.0958,-19.285,-0.5348,-1.5521,-9.6637,0.6117,0.4261,-6.5316,3.344,1.273,-2.9286,0.4925,203368,2021-05-19 16:34:17:784
-8.8089,-14.1903,3.7313,-0.7514,-9.1317,-3.4953,-4.8595,-2.7237,6.6623,-3.5866,0.4018,0.423,203869,2021-05-19 16:34:18:285
2.0794,-8.0877,-9.3882,-1.5389,-9.6614,-0.6774,-0.979,-1.0582,1.6169,1.9037,3.586,0.6264,204369,2021-05-19 16:34:18:785
-0.5949,-6.2276,4.7154,-0.5941,-8.9656,-3.9289,0.1756,3.2318,7.3871,-2.0236,-1.2328,-1.4227,204869,2021-05-19 16:34:19:285
-0.839,-16.5939,3.7552,-1.6148,-9.5661,1.4323,1.7541,-1.9698,6.3469,2.3909,-1.7683,-0.1982,205369,2021-05-19 16:34:19:785
-0.341,1.5843,6.4056,-0.0885,-9.1372,-3.56,-1.8692,-0.8431,3.2701,-0.7155,-3.5376,-0.7625,205868,2021-05-19 16:34:20:284
2.9701,-9.0431,-6.2853,-1.7601,-9.2656,2.687,3.4116,1.2733,-3.5915,1.0192,-3.604,0.4896,206368,2021-05-19 16:34:20:784
-0.6739,-1.8775,5.6372,-0.8776,-8.7382,-4.364,-0.1772,9.1809,10.1493,-1.5416,-3.1978,-1.9087,206868,2021-05-19 16:34:21:284
2.0124,-8.6001,1.797,-1.3189,-9.564,1.7209,3.0119,4.1655,-6.0877,2.4678,3.3965,-0.2326,207368,2021-05-19 16:34:21:784
-2.7568,-5.1503,-19.1106,-0.6701,-8.9605,-3.9282,1.3697,4.1727,7.6493,-0.0553,-1.1346,-0.1571,207868,2021-05-19 16:34:22:284
-1.1527,-12.2462,-5.1867,-2.1662,-9.1085,2.9178,-1.336,1.0818,-2.9052,2.7589,1.4363,-0.7518,208368,2021-05-19 16:34:22:784
-1.1288,1.2398,0.8824,-1.0233,-8.9415,-3.8951,0.012,10.3789,8.8401,-0.5582,-3.0101,-0.6713,208868,2021-05-19 16:34:23:284
2.1129,-13.2924,-5.4906,-1.8764,-9.3427,2.316,1.8061,1.767,-2.9268,1.2234,0.3679,0.9059,209368,2021-05-19 16:34:23:784
-1.5906,0.7011,0.4469,-0.8755,-8.7611,-4.3181,1.5997,4.0161,9.789,-1.4731,-2.9362,-1.9402,209868,2021-05-19 16:34:24:284
0.5399,-13.9388,-11.0474,-2.2577,-9.143,2.7346,-0.9249,1.057,-2.9108,2.3763,2.9935,-0.3569,210368,2021-05-19 16:34:24:784
-2.9818,-7.3696,-13.1901,-1.1501,-8.792,-4.1891,0.8591,8.5161,7.8685,-0.7257,-2.1789,-0.3964,210868,2021-05-19 16:34:25:284
-1.1599,-5.732,1.6199,-1.5512,-9.4331,2.1866,4.0579,0.1672,-5.4872,1.331,0.4135,0.7251,211369,2021-05-19 16:34:25:785
-13.2619,-22.1913,-14.1021,-1.5944,-9.0491,-3.4266,0.2818,7.1879,-3.5941,-1.0445,-3.2518,-1.5361,211868,2021-05-19 16:34:26:284
-0.5471,-12.6317,-1.4877,-1.8657,-9.1843,2.8878,-1.6165,-0.4196,-6.8738,1.838,0.7883,0.1083,212368,2021-05-19 16:34:26:784
-4.284,-26.6324,-13.815,-0.6842,-9.0123,-3.8054,0.2432,10.7321,5.9034,-0.0121,-0.9337,-0.2095,212868,2021-05-19 16:34:27:284
4.7465,-16.1868,0.8297,-1.8349,-9.264,2.6422,5.7865,-5.0284,-3.3572,0.812,1.8434,-0.3656,213369,2021-05-19 16:34:27:785
0.248,-7.6639,-19.1752,-1.3293,-9.0096,-3.6374,-4.0416,-4.9394,-13.2071,-0.4493,-2.0949,-0.257,213868,2021-05-19 16:34:28:284
2.4123,-10.6205,-2.2035,-1.4347,-9.3467,2.5982,2.1432,-3.4468,-7.6998,0.139,0.7547,-0.3674,214368,2021-05-19 16:34:28:784
0.9613,-8.4326,23.2122,-1.4095,-9.1721,-3.1712,-0.1398,7.8093,0.224,-0.1064,0.3775,-0.6536,214868,2021-05-19 16:34:29:284
0.88,-15.816,-1.5882,-1.4272,-9.3364,2.639,-4.0516,0.1713,-3.9953,0.5695,1.6227,0.0913,215369,2021-05-19 16:34:29:785
-5.5771,-11.782,-7.1163,-1.4936,-8.9337,-3.7588,-1.1396,-12.2676,-7.858,0.1507,-1.0441,0.5003,215868,2021-05-19 16:34:30:284
2.8525,-16.5078,-1.2362,-1.805,-9.238,2.7517,3.831,-3.3553,-5.5498,-0.5244,-0.0997,-0.5331,216368,2021-05-19 16:34:30:784
-5.237,-10.7094,20.4278,-1.393,-9.083,-3.4248,-3.2595,6.6249,-3.1436,1.3552,-0.3428,-0.1177,216869,2021-05-19 16:34:31:285
-0.1615,-10.9056,-4.3439,-1.0385,-9.685,1.1372,3.1462,-2.8377,-4.0537,0.624,1.8926,-0.4363,217368,2021-05-19 16:34:31:784
-11.8567,-0.7546,-5.8235,-1.5004,-8.9937,-3.61,-3.9308,-14.7023,-5.0472,-0.5156,-0.5185,0.2274,217869,2021-05-19 16:34:32:285
4.7752,-13.8909,-2.5603,-1.5094,-9.4884,1.9654,6.1798,-3.9943,-2.8823,-2.7184,-0.7553,-1.0809,218375,2021-05-19 16:34:32:791
-1.4471,-1.1713,3.88,-1.5266,-9.3721,-2.4504,-2.334,1.4267,7.7312,0.2156,-1.043,0.8501,218871,2021-05-19 16:34:33:287
-1.5236,-17.6354,-7.4779,-1.0714,-9.6101,-1.6338,-0.6388,-6.4837,1.3522,-3.0694,-0.1881,-1.0047,219368,2021-05-19 16:34:33:784
0.4178,-10.4267,-9.9006,-2.0134,-8.9509,-3.4638,-1.9503,-6.093,11.7183,-0.18,2.1097,0.0722,219869,2021-05-19 16:34:34:285
-6.312,-17.6187,-2.0456,-0.8048,-9.7442,-0.7576,3.0167,-4.3359,0.2472,-2.7832,-1.1664,-1.45,220368,2021-05-19 16:34:34:784
0.9302,0.7681,4.1527,-1.4735,-9.6223,-1.188,0.9497,6.5654,6.471,1.8768,0.5444,0.1318,220868,2021-05-19 16:34:35:284
-7.5449,-16.4527,-5.062,-0.7528,-9.6037,-1.8363,-1.2085,-5.4347,3.7055,-3.4437,0.2213,0.3427,221368,2021-05-19 16:34:35:784
-3.4056,-1.5829,8.5412,-1.3535,-9.2205,-3.0528,-1.2329,-2.7436,7.1173,0.431,1.9521,-0.0279,221868,2021-05-19 16:34:36:284
-4.6481,-8.6456,-0.5611,-0.9806,-9.2834,-3.0046,-7.0965,-7.164,1.1829,-2.8688,-1.2034,-1.4442,222368,2021-05-19 16:34:36:784
3.772,3.3344,-6.4029,-0.754,-9.7217,-1.0444,3.1732,5.671,5.4248,3.894,3.223,-0.0713,222868,2021-05-19 16:34:37:284
0.8632,-6.7807,3.7241,-0.5609,-9.5583,-2.1201,-3.4356,-7.2491,2.9769,-2.8498,-1.4378,0.0741,223369,2021-05-19 16:34:37:785
-0.2596,-13.2518,6.8868,-0.5182,-9.6797,-1.4851,-3.7837,3.9644,3.5478,0.8723,1.1537,0.1408,223870,2021-05-19 16:34:38:286
-6.4675,-13.1513,6.9227,-0.6873,-9.2527,-3.1757,-5.456,-3.4795,5.9256,-2.3647,-1.0389,0.0987,224368,2021-05-19 16:34:38:784
1.6627,-8.988,4.756,-0.9423,-9.7536,-0.3859,0.3804,1.952,1.3604,1.4779,0.6573,0.5284,224868,2021-05-19 16:34:39:284
-1.5404,-8.5475,-1.7677,-0.8713,-9.4824,-2.3443,-6.6567,-6.2093,0.4771,-3.5283,0.244,0.4575,225368,2021-05-19 16:34:39:784
-1.2628,-5.0112,-1.9068,-1.1351,-9.6541,1.2964,0.9266,-2.6373,6.7544,1.2922,3.896,1.2684,225868,2021-05-19 16:34:40:284
-4.8826,-14.1233,3.4226,-0.0929,-9.1429,-3.5454,-1.7073,-1.9053,3.6259,-1.9005,-1.5745,-1.7676,226368,2021-05-19 16:34:40:784
0.5734,-7.197,-9.3428,-1.3205,-9.7108,-0.3555,-2.4514,-2.5908,-0.6788,3.5414,3.9203,0.0918,226869,2021-05-19 16:34:41:285
-5.4787,-13.0196,8.6752,-1.2501,-9.3739,-2.5955,-5.839,-5.9835,1.3316,-2.9812,-1.7742,0.6066,227368,2021-05-19 16:34:41:784
1.8066,-6.3233,-13.7886,-1.4538,-9.572,1.5598,2.0801,-3.7748,7.4447,0.5324,1.5202,1.0713,227868,2021-05-19 16:34:42:284
0.8704,-6.2492,6.3482,-0.3625,-9.1903,-3.4026,0.0443,-0.6066,2.5009,-1.2622,-2.8392,-1.9822,228369,2021-05-19 16:34:42:785
1.3756,-4.7527,-10.5924,-1.5363,-9.6809,0.3018,-1.0793,-6.662,2.8217,2.5817,5.1528,1.4888,228868,2021-05-19 16:34:43:284
-1.6074,-0.5055,4.7249,-0.8975,-8.9064,-4.0051,-0.4978,6.7196,9.3187,-1.1107,-2.9576,-1.3561,229368,2021-05-19 16:34:43:784
2.2756,-8.8681,-9.0601,-1.2317,-9.5643,1.7825,2.6859,2.4786,-1.8872,1.7973,3.4756,1.1359,229868,2021-05-19 16:34:44:284
0.4753,1.3881,4.0451,-0.5063,-9.107,-3.6024,1.7739,2.0297,3.2118,-1.815,-1.0445,-1.2052,230368,2021-05-19 16:34:44:784
1.6101,-10.2808,-2.5627,-1.1994,-9.7178,0.5451,0.4274,-7.4868,4.0736,2.4257,-1.209,-0.1341,230868,2021-05-19 16:34:45:284
-0.4391,1.0792,3.3939,-0.9011,-8.8849,-4.0518,0.0286,6.415,9.6971,-0.8717,-3.444,-1.083,231368,2021-05-19 16:34:45:784
1.9023,-9.9335,-4.1477,-1.2947,-9.6288,1.3342,0.3869,2.923,-3.2507,0.2814,0.239,1.0667,231869,2021-05-19 16:34:46:285
-0.1041,1.3355,3.2309,-0.2882,-9.0822,-3.6879,2.5679,1.7648,4.955,-1.6249,-1.9949,-2.1358,232368,2021-05-19 16:34:46:784
1.6364,-9.6057,0.4516,-1.5584,-9.2968,2.7039,1.5296,1.929,-0.8409,2.216,1.8606,-0.4423,232868,2021-05-19 16:34:47:284
-0.5782,-3.0649,5.5415,-0.7031,-8.8204,-4.2281,0.6081,7.1224,9.3291,-0.5423,-2.5312,-0.8361,233369,2021-05-19 16:34:47:785
-1.8494,-10.7213,-8.2798,-1.3513,-9.5895,1.5446,2.2235,3.3147,-7.3404,1.5641,-2.8644,0.3099,233868,2021-05-19 16:34:48:284
-0.1783,-0.2734,2.8026,-0.6433,-8.9471,-3.963,1.5307,2.3618,5.717,-0.7155,-2.3673,-0.3167,234368,2021-05-19 16:34:48:784
2.0937,-9.134,1.7731,-1.3068,-9.7032,0.5574,-0.4563,-4.9088,2.8158,0.8275,-2.1227,0.6038,234868,2021-05-19 16:34:49:284
-1.0424,-0.7522,5.9435,-0.7134,-8.8445,-4.1757,-0.3367,8.2343,9.4687,-1.1919,-2.4353,-1.4796,235368,2021-05-19 16:34:49:784
1.5718,-8.9471,-4.3439,-1.4585,-9.5949,1.4073,0.8471,2.3992,-4.7669,2.0541,3.6567,-0.3801,235868,2021-05-19 16:34:50:284
-3.8749,-11.6668,-13.3792,-0.5163,-9.0683,-3.6973,-0.6938,8.0241,0.5134,-0.4555,-1.0247,-0.3195,236368,2021-05-19 16:34:50:784
-1.7608,-8.5594,3.7887,-1.5439,-9.3103,2.6656,1.1835,0.9719,-0.1741,1.5253,-3.119,-0.3934,236868,2021-05-19 16:34:51:284
-1.5021,-4.3863,-12.6395,-1.353,-8.8188,-4.0705,0.5231,8.6904,8.8451,-0.7576,-3.1207,-0.5869,237368,2021-05-19 16:34:51:784
2.1344,-13.4626,-7.5999,-1.3728,-9.5934,1.5006,1.9455,1.0042,-8.8755,2.0631,2.5077,-0.2075,237869,2021-05-19 16:34:52:285
-0.4223,-3.8836,-12.9529,-0.849,-9.1288,-3.4805,0.7959,8.8567,5.0931,-0.1903,-1.6478,-0.6408,238369,2021-05-19 16:34:52:785
-6.003,-10.0292,-6.2806,-1.692,-9.2865,2.6586,-1.6575,1.7826,-1.7806,2.4825,-0.0834,-0.5548,238868,2021-05-19 16:34:53:284
-2.1748,-4.2428,-13.2356,-1.36,-8.7214,-4.2729,-0.4903,8.1697,8.9284,0.211,-0.7005,-0.3555,239368,2021-05-19 16:34:53:784
-4.2266,-9.4929,-0.8438,-1.1225,-9.6311,1.4671,-0.6892,-1.3665,-7.0596,2.1123,-0.1686,-0.2037,239868,2021-05-19 16:34:54:284
-0.6356,-0.7834,0.3772,-1.0607,-8.9854,-3.7825,0.4839,8.9681,6.0879,-0.7924,-3.0955,-0.8379,240369,2021-05-19 16:34:54:785
-0.8701,-11.9327,-7.6071,-1.4312,-9.4563,2.1679,3.3554,0.4753,-5.1535,2.136,2.9237,-0.5325,240870,2021-05-19 16:34:55:286
-0.8222,-0.4074,5.3282,-1.1508,-8.8527,-4.0591,0.6935,4.1569,9.7999,-0.3349,-0.979,-0.381,241368,2021-05-19 16:34:55:784
-0.973,-13.8861,-10.5589,-1.8215,-9.2635,2.6533,-1.2375,1.5892,-0.3307,2.2983,-2.5521,-0.2689,241868,2021-05-19 16:34:56:284
-1.136,-0.2949,-0.5037,-1.1217,-8.8855,-3.9951,0.5096,8.393,8.7427,-0.5798,-3.4776,-1.0949,242368,2021-05-19 16:34:56:784
3.1759,-13.6182,0.2934,-1.3008,-9.4803,2.1454,2.8718,0.1362,-8.4286,2.0718,1.7492,-0.1243,242869,2021-05-19 16:34:57:285
-2.5125,-7.4725,-16.7788,-1.3617,-9.1003,-3.3913,-0.748,5.4166,-4.3055,0.1611,-0.5939,-0.186,243368,2021-05-19 16:34:57:784
-0.8174,-11.2696,-3.3646,-1.7447,-9.2173,2.8578,0.4986,0.202,-1.8026,2.3814,0.4149,-0.0864,243868,2021-05-19 16:34:58:284
-0.7265,-1.7004,-4.0469,-0.8515,-9.1035,-3.5456,-0.1176,9.8434,5.6349,1.277,0.4849,-0.4114,244369,2021-05-19 16:34:58:785
-3.1373,-5.8373,2.2448,-1.4931,-9.4197,2.2825,3.5025,0.6133,-5.4591,0.5976,2.1696,-0.1935,244868,2021-05-19 16:34:59:284
-5.2011,-12.7729,-11.5167,-0.7533,-9.0114,-3.7944,0.5844,5.2245,9.2618,-0.4856,-3.0312,-0.7982,245368,2021-05-19 16:34:59:784
-1.713,-11.6453,-12.5007,-2.0715,-9.2171,2.6312,-1.8467,0.978,-3.1278,1.8913,-0.4531,0.6125,245869,2021-05-19 16:35:00:285
-4.2529,-9.347,-13.2643,-1.3459,-8.8794,-3.9389,-0.1039,11.1261,8.0343,0.9511,-1.091,0.1297,246369,2021-05-19 16:35:00:785
-4.7892,-6.7854,3.0802,-1.4332,-9.5439,1.7408,0.5768,2.8926,-7.3866,2.5567,3.3542,-0.6098,246868,2021-05-19 16:35:01:284
-4.4973,-7.4103,-14.6551,-1.054,-9.0567,-3.6105,-0.3431,6.2888,0.8754,-0.7451,-3.32,-0.5107,247369,2021-05-19 16:35:01:785
-4.107,-9.6033,-3.2785,-1.7494,-9.2324,2.806,-0.2216,1.7034,-1.1443,1.7942,-0.1946,0.6102,247869,2021-05-19 16:35:02:285
-0.3649,4.2491,3.813,-0.9452,-8.8809,-4.0504,-0.2323,10.4065,9.8589,0.6319,-0.5223,0.0582,248368,2021-05-19 16:35:02:784
6.2859,-10.8577,0.5354,-1.5463,-9.345,2.5396,1.4837,-2.9801,-8.2295,2.3256,3.6547,-0.5673,248868,2021-05-19 16:35:03:284
-0.3529,-3.0218,-14.5044,-1.0498,-8.9358,-3.9012,0.0761,9.0883,4.4331,-0.9354,-2.6561,-0.1897,249368,2021-05-19 16:35:03:784
-1.4518,-9.2847,3.7505,-1.4926,-9.3292,2.6284,3.2477,0.9034,-3.1912,1.9408,0.1632,0.3286,249868,2021-05-19 16:35:04:284
-2.0934,-0.3428,-1.1812,-0.8487,-8.9511,-3.9151,-0.8281,6.6299,8.5446,0.4873,-1.0453,-0.1417,250368,2021-05-19 16:35:04:784
-5.6154,-6.0503,4.1767,-1.7786,-9.2888,2.5932,3.0479,-0.6762,-7.0729,0.1338,1.0458,0.2237,250868,2021-05-19 16:35:05:284
-1.9666,-8.5738,-12.5198,-3.3751,-7.0096,-5.9704,2.8038,3.2426,4.9505,-0.6875,-1.6975,0.655,251368,2021-05-19 16:35:05:784
-0.2453,-8.9183,5.5798,-1.4868,-9.5538,1.6383,1.6619,-3.8529,-6.3435,2.3547,2.3369,-0.2879,251868,2021-05-19 16:35:06:284
0.5662,3.2363,-1.0328,-3.1835,-6.9008,-6.198,4.2983,4.0071,1.197,-0.6782,-1.651,-0.3581,252369,2021-05-19 16:35:06:785
-7.4444,-7.8509,1.3325,-1.7075,-9.4759,1.8608,1.4276,1.8235,-3.5873,2.4118,2.3902,0.0072,252869,2021-05-19 16:35:07:285
-0.9562,-1.6307,-6.9823,-2.5512,-7.2822,-6.0524,1.7765,-1.4169,9.8832,-3.6698,-3.0344,-1.3781,253368,2021-05-19 16:35:07:784
3.0538,-9.4235,-4.7916,-1.376,-9.6611,0.9698,-0.2125,0.6832,-1.5099,1.7942,-1.0368,0.1657,253868,2021-05-19 16:35:08:284
-1.3848,1.7498,-10.7384,-2.5846,-7.311,-6.0034,2.1484,11.1572,7.752,-2.0286,-0.58,0.049,254369,2021-05-19 16:35:08:785
2.1918,-6.699,-5.3758,-1.3195,-9.5674,1.7014,1.5393,2.8167,-2.8376,1.9204,3.1934,-0.3157,254869,2021-05-19 16:35:09:285
3.5542,-7.2042,5.7999,-0.409,-8.9461,-3.9962,2.1333,0.7147,1.3179,-2.5526,-1.2202,-1.623,255368,2021-05-19 16:35:09:784
-6.7669,-8.7245,0.8728,-1.3343,-9.6631,1.0071,2.2059,-7.569,0.1081,2.6317,1.087,-0.6845,255868,2021-05-19 16:35:10:284
0.1905,-5.0016,4.5455,-0.7327,-8.9187,-4.0114,0.3744,6.1733,9.5363,-0.4534,-2.7844,-1.1631,256368,2021-05-19 16:35:10:784
2.5175,-9.9215,1.311,-0.9749,-9.6826,1.2114,-0.6144,4.0488,-3.8546,1.0084,-1.4515,0.0803,256868,2021-05-19 16:35:11:284
2.2158,-6.6966,3.6141,-0.93,-8.9237,-3.9588,-0.46,0.3639,1.5284,-2.3418,-1.1647,-1.2084,257368,2021-05-19 16:35:11:784
-4.6505,-11.4275,-3.099,-1.4101,-9.3554,2.5805,2.3847,1.4155,-3.9977,2.4695,1.8967,-0.4465,257870,2021-05-19 16:35:12:286
-0.5279,0.4639,3.7792,-0.9397,-9.0232,-3.724,1.5737,4.7794,8.0582,-0.4893,-2.9076,-0.7425,258369,2021-05-19 16:35:12:785
1.2129,-9.5889,-1.5212,-1.1914,-9.6584,1.2112,1.6622,3.514,0.4672,0.8201,-2.6865,0.3868,258868,2021-05-19 16:35:13:284
-1.0639,-3.2252,4.4856,-1.2805,-8.9891,-3.7051,1.2532,6.6687,7.9808,-1.7939,-1.2171,-0.7542,259368,2021-05-19 16:35:13:784
-0.5542,-6.5339,-12.1391,-1.0678,-9.6291,1.5202,2.2975,1.6352,-8.2217,1.9207,1.4847,-0.6058,259873,2021-05-19 16:35:14:289
-1.3202,-0.3188,2.8552,-1.0095,-8.9834,-3.8013,2.9176,2.4614,4.0856,-0.6753,-2.3915,-0.803,260368,2021-05-19 16:35:14:784
2.5654,-9.469,-0.5946,-1.1698,-9.7183,0.5976,1.3287,-4.5706,5.405,1.9113,1.6131,-0.0713,260868,2021-05-19 16:35:15:284
-1.5882,-0.5871,3.8034,-1.093,-8.9224,-3.9201,0.2819,5.0706,8.6511,-2.2948,-1.7721,-0.8656,261368,2021-05-19 16:35:15:784
-0.4295,-6.242,1.0765,-1.0109,-9.6763,1.2323,2.9965,1.2403,-0.5899,2.1441,-1.8962,-0.5212,261868,2021-05-19 16:35:16:284
2.3931,-7.0295,3.4322,-0.864,-9.0392,-3.7035,-3.9136,-2.1453,5.625,-1.2735,-1.7695,-1.3955,262368,2021-05-19 16:35:16:784
0.3796,-6.6823,1.3277,-0.8183,-9.6957,1.2222,-1.3654,0.2224,1.7344,1.5351,2.4122,-0.7935,262868,2021-05-19 16:35:17:284
-0.5614,-4.7623,4.488,-0.6769,-9.0323,-3.7591,1.4429,1.3127,2.3216,-2.6366,-1.8974,0.6024,263372,2021-05-19 16:35:17:788
2.2516,-9.201,-1.847,-1.4627,-9.6969,0.0324,-0.3483,-6.7744,1.851,0.9428,-1.1033,0.4595,263868,2021-05-19 16:35:18:284
-0.2309,-5.2819,6.3434,-1.3131,-9.3708,-2.5758,-5.5773,-6.6275,2.8392,-2.3921,-1.2397,-1.3775,264368,2021-05-19 16:35:18:784
2.1368,-18.0903,3.717,-1.3598,-9.7039,0.3948,2.244,-6.2855,3.152,2.0584,-2.0697,-0.2369,264868,2021-05-19 16:35:19:284
-1.5643,-1.9397,5.2612,-1.1637,-9.2387,-3.0763,-4.3818,-3.7648,7.7943,-3.199,-1.0766,0.5922,265377,2021-05-19 16:35:19:793
-7.2673,-17.2714,0.923,-1.6593,-9.6421,-0.6683,4.307,-0.0751,4.9824,2.1543,3.6168,1.005,265868,2021-05-19 16:35:20:284
3.5351,-8.0351,3.3796,-0.6108,-9.0637,-3.6941,0.8604,0.2325,1.8146,-2.3232,-2.2381,-1.0962,266369,2021-05-19 16:35:20:785
3.4609,-21.6263,5.077,-1.6087,-9.6738,-0.0038,-0.0569,-6.8544,1.1337,2.3505,1.6968,0.3934,266868,2021-05-19 16:35:21:284
-0.4678,-5.4709,5.1894,-1.3751,-9.3651,-2.5642,-4.2313,-6.5071,2.6064,-3.1785,0.056,0.0964,267369,2021-05-19 16:35:21:785
-8.2056,-9.9646,2.0195,-0.8266,-9.6286,-1.6666,0.1861,9.431,7.4423,2.7627,5.1534,1.1545,267869,2021-05-19 16:35:22:285
-0.3817,-9.2512,-4.1477,-0.6998,-9.1452,-3.4707,-4.3267,-3.8479,6.952,-2.7749,-2.4825,-0.1454,268369,2021-05-19 16:35:22:785
-7.8347,-10.9223,-1.7414,-1.266,-9.7078,-0.5715,1.3226,2.296,2.2312,0.9192,0.6959,0.4003,268868,2021-05-19 16:35:23:284
1.7249,-7.7907,-2.8762,-0.9603,-9.4737,-2.3447,-5.2648,-8.7586,0.7544,-3.7695,0.1164,0.4442,269368,2021-05-19 16:35:23:784
-3.9467,-15.2845,3.7122,-1.3258,-9.6583,1.0633,1.8003,-3.4874,5.8082,2.63,5.5312,0.8057,269871,2021-05-19 16:35:24:287
-5.8738,-12.8877,9.5204,-0.3345,-9.0558,-3.7484,-1.5921,-1.4388,4.9826,-2.42,-1.9225,-1.7318,270368,2021-05-19 16:35:24:784
2.2636,-12.4092,6.8845,-1.1144,-9.7403,0.2344,1.2343,-9.1897,-1.0946,2.4761,1.0919,-0.6023,270868,2021-05-19 16:35:25:284
-3.0081,-8.8585,-0.7361,-0.6723,-9.302,-3.0318,-5.7308,-5.2582,5.2284,-2.3227,-1.85,-0.1112,271368,2021-05-19 16:35:25:784
1.4952,-8.8322,1.3134,-1.0896,-9.6321,1.4851,-0.4619,3.8127,-3.9058,1.4176,-3.4656,0.0559,271868,2021-05-19 16:35:26:284
0.734,-5.0279,4.4234,-0.3253,-9.1899,-3.4075,1.5407,1.6004,2.9008,-1.328,-2.2533,-1.7539,272368,2021-05-19 16:35:26:784
-0.7816,-6.2276,1.9693,-1.2735,-9.7048,0.6047,0.9598,-6.1752,3.8754,2.4058,3.6049,-0.543,272868,2021-05-19 16:35:27:284
-0.7481,-1.8416,5.7449,-0.424,-8.9575,-3.9691,-0.521,6.0859,9.6012,-2.3437,-2.4571,-1.4399,273368,2021-05-19 16:35:27:784
0.8321,-6.9171,-6.5082,-1.2719,-9.6303,1.3453,0.3975,4.3666,-8.4517,2.103,-2.7497,-0.2912,273868,2021-05-19 16:35:28:284
-0.8557,-2.0809,4.1647,-0.4925,-9.094,-3.6368,1.6416,1.8406,4.1719,-1.0542,-3.0695,-1.0065,274370,2021-05-19 16:35:28:786
-2.3474,-7.1779,3.8728,-1.2524,-9.7206,0.3353,-1.4245,-5.3822,1.9619,2.2901,3.412,-0.3464,274871,2021-05-19 16:35:29:287
-0.2764,1.5102,4.8326,-0.559,-9.3334,-2.9572,-6.0028,-4.8425,6.1373,-1.8689,-1.344,-1.485,275369,2021-05-19 16:35:29:785
0.6069,-9.5363,-6.1801,-1.1015,-9.5595,1.8901,-0.1046,3.7083,-1.9846,2.2036,-2.7053,0.0721,275868,2021-05-19 16:35:30:284
-1.5404,1.2757,3.571,-0.3605,-9.0795,-3.6882,2.1257,3.1819,7.6051,-1.0607,-3.0533,-0.6651,276368,2021-05-19 16:35:30:784
1.4521,-8.3438,-1.6385,-0.7866,-9.7075,1.147,1.9637,-4.3776,3.8607,0.9607,0.3413,0.8541,276868,2021-05-19 16:35:31:284
-0.4678,3.0664,3.7098,-0.6888,-9.0969,-3.5975,0.02,9.7794,9.3398,-1.2594,-2.284,-2.0063,277369,2021-05-19 16:35:31:785
1.8975,-8.9231,1.3923,-1.235,-9.5453,1.8793,-1.9698,2.6508,-8.9813,2.0117,3.2138,-0.2133,277869,2021-05-19 16:35:32:285
-0.7122,-1.7124,5.5463,-0.5497,-9.0998,-3.614,1.9386,3.6006,8.6632,-0.4673,-1.705,-0.3285,278369,2021-05-19 16:35:32:785
1.7444,-14.6979,-3.0153,-1.9048,-9.176,2.8883,-2.3148,0.5942,-3.323,2.3675,-3.3374,-0.1035,278868,2021-05-19 16:35:33:284
-0.9634,-0.8767,-1.9379,-0.8615,-9.0672,-3.635,-0.206,10.659,7.2747,-0.7006,-3.3615,-0.6137,279368,2021-05-19 16:35:33:784
7.1788,-14.2047,1.2248,-1.3476,-9.3358,2.6827,1.5618,0.4609,-5.9534,1.5157,1.339,0.2112,279869,2021-05-19 16:35:34:285
-3.2617,-3.2539,-11.8995,-0.8641,-8.8857,-4.0581,0.3957,9.0034,8.8573,0.8457,-0.4406,-0.0466,280369,2021-05-19 16:35:34:785
-5.7087,-10.0196,-1.3729,-1.4727,-9.2815,2.8028,-1.2108,-2.877,-10.0705,2.4855,3.474,-0.5211,280868,2021-05-19 16:35:35:284
-6.9488,-19.3687,-14.6815,-0.76,-9.1271,-3.5054,-0.1926,7.3859,1.9959,0.6864,-0.9697,0.297,281368,2021-05-19 16:35:35:784
3.384,-12.615,-5.7661,-1.4332,-9.2593,2.8951,-0.1399,1.5071,-1.2199,2.5201,3.0051,-0.2561,281868,2021-05-19 16:35:36:284
-5.0001,-8.3294,-14.0064,-1.6575,-8.8462,-3.8947,-4.8027,-7.0531,-8.6247,0.3891,-1.5013,-0.3178,282369,2021-05-19 16:35:36:785
-2.9746,-10.7644,-4.8203,-1.5341,-9.2153,2.9825,-0.9023,-3.2515,-9.057,0.8135,1.2011,0.3369,282869,2021-05-19 16:35:37:285
0.1164,-24.1185,-6.1083,-0.9525,-9.1249,-3.464,-1.4591,7.1464,-1.0124,0.4586,-1.0496,0.3874,283368,2021-05-19 16:35:37:784
1.7659,-11.2193,-6.0532,-1.4545,-9.2405,2.9441,-0.6802,0.9247,-0.8186,2.1041,1.1768,0.0936,283869,2021-05-19 16:35:38:285
-4.4997,-25.1528,-13.1806,-1.2192,-8.9048,-3.9228,-2.4288,-13.4917,-7.3377,1.0082,-0.7381,0.0017,284368,2021-05-19 16:35:38:784
5.5029,-12.9407,1.3636,-1.1688,-9.3556,2.6975,3.1837,-5.0822,-4.5223,0.4949,2.2465,-0.8297,284868,2021-05-19 16:35:39:284
-6.3096,-15.172,-12.5079,-1.5255,-9.0421,-3.4762,-1.4004,4.6442,-6.2252,-0.4097,-0.5446,0.1793,285368,2021-05-19 16:35:39:784
1.2105,-13.357,-3.0607,-0.7647,-9.6872,1.3203,6.2225,-4.1626,-1.4313,1.5583,-1.0971,0.7616,285868,2021-05-19 16:35:40:284
-7.8538,-4.2165,-8.8089,-1.4315,-8.9182,-3.8193,-1.6957,-9.7942,-7.184,-0.2868,-0.4885,-0.2758,286369,2021-05-19 16:35:40:785
1.6579,-13.1393,-3.1636,-1.3471,-9.2805,2.8685,3.9199,-5.0484,-8.7502,1.3385,-0.3577,0.5728,286868,2021-05-19 16:35:41:284
-6.7573,-4.2045,0.2073,-1.5698,-8.8847,-3.8429,-1.5985,1.0777,-8.2204,0.6925,-1.1942,0.7761,287368,2021-05-19 16:35:41:784
4.7536,-13.9173,-0.4463,-1.3629,-9.3217,2.7238,4.9564,-3.8842,-1.9023,-0.2297,0.7458,-0.9227,287869,2021-05-19 16:35:42:285
-10.3986,-18.1214,-16.4414,-0.9859,-9.0922,-3.5399,-1.7639,-4.7107,-3.0283,1.1623,2.9153,0.0939,288368,2021-05-19 16:35:42:784
2.9174,-11.9566,-3.099,-0.7686,-9.5559,2.0652,6.6079,-5.5307,-2.6644,0.3563,2.8377,-0.6437,288868,2021-05-19 16:35:43:284
-0.5518,-5.4805,8.4814,-0.5514,-9.4337,-2.6215,-2.0062,3.1199,7.102,-0.2243,0.562,-0.1373,289376,2021-05-19 16:35:43:792
0.7244,-13.4145,4.3178,0.0592,-9.7787,-0.7377,-0.2668,-3.5369,-0.8063,-3.073,-1.233,-0.8306,289868,2021-05-19 16:35:44:284
4.0786,-9.9,3.6787,-0.9106,-9.169,-3.3571,-3.2827,0.1283,5.194,2.282,1.4164,0.255,290368,2021-05-19 16:35:44:784
-5.5074,-17.7861,-2.6656,-0.2169,-9.7936,0.4564,2.5421,-4.1035,-3.2093,-1.6027,-0.3867,-0.6029,290868,2021-05-19 16:35:45:284
2.8624,-8.8155,5.7568,-0.0943,-9.6827,-1.5512,2.1899,4.3491,5.4626,2.4701,1.4685,-0.4001,291368,2021-05-19 16:35:45:784
0.734,-14.6524,4.7632,0.0381,-9.7988,-0.391,-0.1494,-3.6697,-1.0554,-0.819,-0.3441,-0.3896,291868,2021-05-19 16:35:46:284
5.91,-5.289,1.9214,-1.174,-8.961,-3.807,-4.3553,-2.1502,4.4116,0.0583,2.1128,0.2918,292368,2021-05-19 16:35:46:784
-1.8398,-15.1744,4.0714,-0.7898,-9.398,-2.688,-5.8307,-7.0603,2.0505,-3.0796,-0.1628,-1.1684,292869,2021-05-19 16:35:47:285
-8.342,-12.5767,3.559,-0.1615,-9.7001,-1.4329,-0.8703,3.2711,8.6954,3.1031,0.6887,-0.3448,293368,2021-05-19 16:35:47:784
-1.6507,-11.042,-5.182,-0.0216,-9.6451,-1.7725,0.1329,-5.835,5.2648,-2.907,-1.6806,-1.0487,293868,2021-05-19 16:35:48:284
-0.1472,-8.4613,-6.769,-0.4472,-9.6042,-1.9311,-0.7518,7.422,5.6901,2.5863,1.1446,-0.4519,294368,2021-05-19 16:35:48:784
-1.404,-3.4816,5.8717,-0.0817,-8.8829,-4.1544,-1.9862,-3.0888,3.663,-2.9281,-2.847,-0.0148,294868,2021-05-19 16:35:49:284
0.236,-7.1898,18.5151,-1.0978,-9.6966,0.9697,1.0678,-7.2139,-0.9947,2.0692,-2.9892,-0.3065,295369,2021-05-19 16:35:49:785
2.6922,-7.2688,4.7512,-0.2999,-8.8331,-4.2492,0.3385,-0.5324,1.496,-3.0177,-3.9206,0.0977,295868,2021-05-19 16:35:50:284
-0.9682,-7.3385,3.7816,-0.863,-9.3998,2.6589,2.3586,1.0079,-3.626,2.3279,3.8661,-0.5084,296368,2021-05-19 16:35:50:784
-1.4997,-1.3771,4.6675,-0.3916,-8.7111,-4.487,-1.1076,6.129,8.9618,-2.5546,-1.8229,-0.8671,296868,2021-05-19 16:35:51:284
1.0594,-7.8556,0.9039,-0.8561,-9.6736,1.3635,2.2994,-0.5082,1.0049,0.8553,-3.1292,0.5956,297369,2021-05-19 16:35:51:785
2.1511,-7.9107,3.3532,-0.0493,-8.8696,-4.183,-0.5534,-1.2963,2.5955,-1.7403,-2.7792,-1.842,297868,2021-05-19 16:35:52:284
-2.1102,-6.6488,2.738,-0.6043,-9.4614,2.5074,2.2051,1.4343,-6.1858,2.501,3.3508,-0.5049,298368,2021-05-19 16:35:52:784
-0.5351,3.909,4.3513,-0.1871,-8.6826,-4.555,0.6186,6.6625,10.4492,-2.1253,-0.9587,-1.5216,298868,2021-05-19 16:35:53:284
-4.7581,-8.5881,4.0618,-0.7001,-9.6417,1.6485,1.1725,2.6378,-3.237,2.2339,-1.3736,-0.3648,299368,2021-05-19 16:35:53:784
-2.2636,1.3116,0.2025,-0.2088,-8.7832,-4.3569,0.5777,4.6059,9.3504,-0.8162,-2.7157,-0.7092,299868,2021-05-19 16:35:54:284
-4.2386,-7.7692,3.1232,-0.8143,-9.393,2.6978,-3.2505,-0.8842,-6.9281,0.8642,1.0927,5.00E-04,300368,2021-05-19 16:35:54:784
-0.6069,-11.9997,-5.4069,-0.2323,-8.8733,-4.1691,0.3629,8.758,2.5633,-0.9314,-3.4426,-0.9569,300868,2021-05-19 16:35:55:284
1.7369,-11.1401,1.9932,-0.786,-9.3781,2.7573,0.218,2.2495,-1.6735,0.4326,3.1752,-0.9444,301369,2021-05-19 16:35:55:785
-3.8004,-23.3883,-12.5366,-1.3575,-8.8073,-4.0938,-4.2692,-11.9696,-5.179,-0.0985,-1.7595,-0.5769,301868,2021-05-19 16:35:56:284
4.1504,-15.8303,-8.7873,-0.8816,-9.4476,2.4769,5.6529,-6.7108,-8.0267,0.9735,0.4407,0.0082,302368,2021-05-19 16:35:56:784
-6.245,-6.9482,8.6584,-0.9382,-8.7941,-4.2373,-7.2247,-9.5272,-9.2797,-0.5111,-0.8364,0.4462,302868,2021-05-19 16:35:57:284
0.0589,-13.0268,-5.8403,0.2585,-9.7945,-0.4137,1.1283,-4.2643,-0.606,-2.6564,-1.0494,-0.6695,303367,2021-05-19 16:35:57:783
-6.9751,-12.8925,-7.0445,-0.7296,-9.1625,-3.4187,-2.8157,-1.5866,6.1221,-0.002,-1.4243,0.3352,303869,2021-05-19 16:35:58:285
1.0379,-13.6397,-0.6784,0.0842,-9.8045,0.1862,2.177,-3.4593,-2.8882,-1.7727,-0.3807,-0.5534,304372,2021-05-19 16:35:58:788
-4.4133,-10.5488,12.2498,-0.6358,-9.0108,-3.8173,-4.0768,1.7371,3.893,0.9065,2.7769,0.3048,304871,2021-05-19 16:35:59:287
-8.7562,-16.4934,0.0972,-0.5988,-9.6939,1.3562,4.0915,-3.4949,-1.1329,-2.884,0.2457,-0.4606,305368,2021-05-19 16:35:59:784
7.5404,-1.5111,-4.9376,-0.4183,-9.494,-2.4204,-1.6845,3.9739,6.4907,-0.1252,1.2481,0.1347,305868,2021-05-19 16:36:00:284
-8.0716,-15.7561,6.2788,-0.0816,-9.7832,-0.6726,2.3854,-3.887,0.8019,-3.4827,-0.6857,0.6652,306369,2021-05-19 16:36:00:785
1.1145,-7.4581,6.839,-0.5764,-9.1799,-3.4011,-3.1896,-3.4484,3.5644,0.3439,2.5152,0.0499,306868,2021-05-19 16:36:01:284
-2.8525,-10.0173,-1.1189,-0.7877,-9.2514,-3.1562,-7.8815,-7.9879,6.1128,-3.0946,0.4997,-0.2906,307368,2021-05-19 16:36:01:784
-1.6292,-10.8817,-1.4375,-0.3342,-9.7069,-1.3544,2.3573,0.4817,4.3608,3.5499,3.8231,0.4277,307868,2021-05-19 16:36:02:284
-10.7507,-17.0034,-0.7337,-0.8535,-9.4545,-2.4606,-4.6392,-7.5957,4.0566,-2.6995,-2.0503,-0.277,308368,2021-05-19 16:36:02:784
1.4163,-6.1149,2.1802,-1.0708,-9.748,-0.0253,-0.4104,-5.5081,3.5312,2.0524,1.5244,0.5527,308868,2021-05-19 16:36:03:284
0.3772,-7.4031,-2.8499,-1.0238,-9.1098,-3.4832,-5.7313,-4.1401,6.6558,-3.3681,-0.5647,0.7671,309368,2021-05-19 16:36:03:784
-4.2171,-7.1755,-3.1516,-0.7769,-9.7529,-0.6698,2.4366,5.4494,3.4258,2.9513,5.2773,1.5221,309869,2021-05-19 16:36:04:285
-2.2564,-9.1244,-4.9448,-0.8553,-9.3004,-2.9902,-2.7538,-6.4678,2.0421,-2.2771,-2.2247,-0.7432,310368,2021-05-19 16:36:04:784
-6.0126,-12.7107,-3.877,-1.2314,-9.7,-0.7509,-0.1074,-6.3754,1.4626,2.5526,1.0875,0.1167,310869,2021-05-19 16:36:05:285
3.9419,-8.3892,-4.684,-0.4187,-9.0644,-3.719,-5.8187,-4.9204,4.7044,-2.2731,-3.091,-0.8523,311369,2021-05-19 16:36:05:785
2.2205,-8.6312,4.756,-1.2677,-9.6974,0.7235,0.755,0.7753,2.6836,2.9548,3.2442,1.0589,311869,2021-05-19 16:36:06:285
-0.1615,-4.5852,6.8055,-0.7046,-9.0706,-3.6605,2.7885,2.2013,5.4076,-2.723,-3.5756,0.0846,312368,2021-05-19 16:36:06:784
1.1001,-7.5538,1.7037,-1.363,-9.7057,-0.3335,2.8901,-2.5712,4.1582,1.3142,-2.5903,0.0609,312868,2021-05-19 16:36:07:284
-0.7313,-0.6278,5.254,-0.426,-9.0655,-3.7157,-0.1526,-0.1749,3.0943,-0.7235,-2.9357,-1.9158,313368,2021-05-19 16:36:07:784
2.3883,-8.1165,-1.0424,-1.0109,-9.5268,2.0948,0.8442,-7.7132,2.8366,1.2967,2.2117,1.0688,313868,2021-05-19 16:36:08:284
-2.776,3.0784,3.4178,-0.2312,-9.0771,-3.7045,-0.363,9.3098,9.3561,-1.5041,-2.0902,-1.8785,314369,2021-05-19 16:36:08:785
-0.4391,-7.4462,-0.1134,-1.4696,-9.1781,3.1262,0.7046,2.2835,-9.1173,2.0841,3.3464,-0.3781,314871,2021-05-19 16:36:09:287
-0.0179,4.8165,4.2604,-0.3362,-9.2004,-3.3778,1.7274,9.1595,11.0407,0.6026,0.2656,-0.277,315368,2021-05-19 16:36:09:784
7.459,-15.5429,-1.6911,-1.1844,-9.3217,2.806,0.2852,-1.4608,-5.2229,2.5118,-0.3444,-0.4345,315868,2021-05-19 16:36:10:284
-13.7671,-16.7231,-9.9676,-0.3561,-9.0223,-3.8265,0.3617,9.3628,-1.5657,1.4291,-0.4238,0.2668,316368,2021-05-19 16:36:10:784
4.4064,-14.8176,-4.308,-1.0664,-9.3092,2.8934,-3.2431,0.9258,-4.1174,2.114,2.8704,-0.3198,316868,2021-05-19 16:36:11:284
3.2644,-3.3257,-13.3505,-0.5929,-9.2003,-3.3427,-0.38,12.116,4.8573,0.0507,-0.6435,-0.6174,317370,2021-05-19 16:36:11:786
-0.4032,-16.5245,-2.3518,-1.2941,-9.2704,2.925,6.881,-3.5426,-1.8115,0.4371,2.5749,-0.7148,317868,2021-05-19 16:36:12:284
-0.0826,-14.3961,13.5664,-0.3714,-9.2246,-3.3075,-2.9004,-14.2794,-7.5539,-0.3546,0.9464,0.098,318368,2021-05-19 16:36:12:784
2.4338,-15.7107,-1.4566,-1.1744,-9.3113,2.8446,4.5409,-4.5041,-5.862,0.9105,1.5926,0.1881,318868,2021-05-19 16:36:13:284
6.9826,-16.759,1.1841,-0.3495,-9.2623,-3.2027,-0.7663,-0.3654,4.5678,0.1727,-1.0082,0.562,319368,2021-05-19 16:36:13:784
0.789,-9.3781,-5.5074,-0.4245,-9.7503,0.9603,4.204,-4.3053,-3.3192,-1.3556,-0.7689,-0.3963,319868,2021-05-19 16:36:14:284
-0.262,-2.8783,11.0931,-0.8144,-9.2027,-3.2891,-3.6134,-7.0805,-3.2914,0.7242,2.2963,0.0863,320368,2021-05-19 16:36:14:784
-2.747,-17.0943,2.2711,-1.2233,-9.4263,2.4124,6.5939,-4.2258,-4.6419,0.3267,1.9643,-0.8715,320868,2021-05-19 16:36:15:284
0.5279,-6.9984,4.8374,-0.6941,-9.504,-2.3157,0.8415,-0.1403,8.4373,-0.5163,1.4414,-0.1695,321368,2021-05-19 16:36:15:784
-1.069,-17.2929,4.5694,-0.1146,-9.7888,-0.581,0.4814,-5.2437,0.3903,-2.8881,-0.5194,-0.9977,321869,2021-05-19 16:36:16:285
2.5056,-1.1282,-0.8868,-0.8339,-9.2499,-3.1488,-2.0789,-0.0652,2.1491,2.5291,0.4702,0.3674,322368,2021-05-19 16:36:16:784
-2.9387,-17.3985,-2.0695,-1.1144,-9.4252,-2.4688,-3.4313,-6.9185,1.5432,-2.6381,-1.869,0.7381,322868,2021-05-19 16:36:17:284
-2.8597,-0.958,4.7082,-1.1822,-9.7119,-0.6724,-0.9243,6.7236,6.9042,0.5018,1.4089,0.2355,323368,2021-05-19 16:36:17:784
0.6455,-8.3031,-4.2027,-0.3326,-9.5891,-2.0271,-2.0361,-6.1666,2.1653,-3.4162,0.153,0.2799,323868,2021-05-19 16:36:18:284
0.6455,-20.822,4.8781,-0.7717,-9.6342,-1.6607,-4.1939,1.9538,5.1654,2.2459,4.9978,1.0215,324368,2021-05-19 16:36:18:784
-4.4252,-12.5145,5.8382,-0.5734,-9.1088,-3.5878,-4.3135,-2.6521,6.8177,-2.365,-1.454,-1.2955,324870,2021-05-19 16:36:19:286
2.1775,-8.6982,-5.8642,-1.1041,-9.7437,-0.1121,-1.2863,-4.7015,-0.1737,3.2592,5.3613,0.9868,325368,2021-05-19 16:36:19:784
-3.8916,-10.9702,-1.3777,-0.9947,-9.3022,-2.9411,-5.1852,-5.8431,5.1965,-2.4362,-1.9901,-0.1139,325868,2021-05-19 16:36:20:284
1.2057,-9.146,7.7824,-0.8113,-9.6754,1.3783,0.8993,3.0863,-2.1321,1.9002,-2.8301,-0.0043,326368,2021-05-19 16:36:20:784
-5.5361,-13.4264,1.1291,-0.4603,-8.9152,-4.0592,-1.211,-2.1419,3.2865,-1.4297,-2.7542,-1.4387,326869,2021-05-19 16:36:21:285
0.6479,-15.6984,6.4199,-0.8315,-9.7655,0.3371,-1.7704,-4.7884,-0.1935,1.627,4.0188,0.8202,327369,2021-05-19 16:36:21:785
1.0116,-6.4095,4.5263,-0.804,-9.387,-2.7218,-5.325,-5.8047,5.4355,-2.4997,-1.6033,-0.4829,327868,2021-05-19 16:36:22:284
0.8201,-7.7405,-7.8775,-0.7049,-9.6497,1.5992,1.7469,1.4161,1.9295,2.3592,-2.1144,-0.2332,328369,2021-05-19 16:36:22:785
1.6723,-5.3273,3.9111,-0.1994,-8.881,-4.1543,-0.4641,-0.4451,3.5699,-3.5648,-1.1215,1.1095,328868,2021-05-19 16:36:23:284
1.0068,-8.5355,-9.982,-0.9758,-9.7573,0.117,-1.4094,-5.3928,2.3443,0.7312,0.4603,1.1799,329368,2021-05-19 16:36:23:784
1.7803,-6.7424,3.7002,-0.6508,-8.861,-4.1508,0.908,4.3305,9.0166,-2.0819,-1.2229,-1.3416,329872,2021-05-19 16:36:24:288
3.0251,-11.8322,6.3721,-0.6755,-9.7013,1.2647,1.8114,1.5793,1.1635,2.1261,-1.0956,-0.2373,330369,2021-05-19 16:36:24:785
0.2503,3.3296,3.1735,-0.0615,-9.0022,-3.8892,1.0027,-1.9551,2.4174,-2.7132,-2.3255,0.6993,330868,2021-05-19 16:36:25:284
2.0267,-9.3661,-3.9631,-0.886,-9.759,0.3837,-1.8502,-3.6726,1.3505,2.176,0.8219,-0.3384,331368,2021-05-19 16:36:25:784
-0.6595,-1.4871,6.4463,-1.0506,-9.1691,-3.3156,-6.4496,-5.5504,5.9672,-3.2644,-2.2137,0.5682,331868,2021-05-19 16:36:26:284
0.1116,-6.1125,7.1429,-0.7223,-9.6848,1.3615,0.3258,1.9548,2.762,1.0465,-0.8911,0.575,332369,2021-05-19 16:36:26:785
1.7779,-6.8859,4.282,-0.3409,-9.0841,-3.6786,-0.8083,-0.0948,3.1801,-1.4071,-1.6873,-1.523,332869,2021-05-19 16:36:27:285
-2.668,-11.4658,-0.5994,-0.8931,-9.3981,2.6547,2.3907,1.2483,-2.7162,1.8913,3.0336,-0.348,333367,2021-05-19 16:36:27:783
-1.7154,0.294,4.0905,-0.6326,-9.0106,-3.8183,0.2528,7.7655,8.8719,-1.8145,-1.5224,-0.8211,333868,2021-05-19 16:36:28:284
-3.032,-10.611,-12.0984,-0.9798,-9.6313,1.5648,0.6628,3.5057,-9.099,2.3139,-0.3129,-0.1694,334369,2021-05-19 16:36:28:785
-1.4136,0.9141,3.5662,-0.356,-9.114,-3.6027,2.0628,1.8232,6.613,-0.4181,-2.8867,-1.1653,334870,2021-05-19 16:36:29:286
-2.3569,-11.7338,-3.4938,-0.733,-9.68,1.3891,1.729,-2.7422,7.4713,1.8463,1.0717,0.219,335368,2021-05-19 16:36:29:784
-1.1145,2.1757,1.5479,-0.4006,-9.2154,-3.3295,-0.9101,9.6186,8.4907,-1.0475,-1.6339,-1.6664,335868,2021-05-19 16:36:30:284
-1.0591,-11.0085,-1.6481,-1.2571,-9.4413,2.3348,2.3124,0.5097,-9.0514,1.2802,0.8909,0.5782,336369,2021-05-19 16:36:30:785
-0.9993,-1.4225,-2.9913,-1.0774,-9.2719,-3.0068,0.8186,7.2481,10.0792,0.9625,-0.8544,0.5533,336868,2021-05-19 16:36:31:284
-1.081,-9.8091,-2.1485,-1.617,-9.2364,2.8714,0.1923,-1.7696,-6.5817,1.957,1.5929,0.0773,337368,2021-05-19 16:36:31:784
-9.5513,-18.0497,-14.1452,-0.3026,-9.2826,-3.1485,-0.6802,8.9908,6.6371,0.1779,-0.8679,0.0017,337868,2021-05-19 16:36:32:284
-3.6592,-9.2919,0.0637,-1.2813,-9.3378,2.7082,2.7491,1.2663,-2.3699,0.8564,1.715,0.3499,338369,2021-05-19 16:36:32:785
-6.3048,-19.8141,-13.2763,-0.8374,-9.2156,-3.2467,-0.3511,3.2508,-5.7979,-0.4949,-2.732,-1.2373,338868,2021-05-19 16:36:33:284
-0.6858,-10.3573,-5.4117,-1.6491,-9.2543,2.7945,-1.1395,1.0018,-3.8823,1.7185,2.5659,-0.465,339368,2021-05-19 16:36:33:784
-1.7824,-4.8126,-6.8049,-0.4805,-9.1734,-3.4335,-1.8999,11.7507,7.3917,0.4216,-1.1426,0.1023,339868,2021-05-19 16:36:34:284
-2.3641,-12.615,-11.246,-1.2556,-9.3756,2.5868,2.7384,-3.7625,-7.2767,0.6217,2.1586,0.0111,340369,2021-05-19 16:36:34:785
-0.9969,-0.7427,-0.2596,-1.0327,-9.3729,-2.6931,-0.508,6.4353,-4.083,-0.4311,-2.6778,-1.3388,340868,2021-05-19 16:36:35:284
2.9916,-10.2688,-4.4252,-1.7977,-9.1713,2.9708,-2.6389,0.3727,-3.1891,2.0077,-0.0487,0.5653,341369,2021-05-19 16:36:35:785
-6.635,-15.9906,-3.6401,-0.2175,-9.2102,-3.3609,-0.3671,10.114,7.301,0.74,-0.1345,-0.6451,341872,2021-05-19 16:36:36:288
6.3242,-13.2326,3.5231,-1.0501,-9.4433,2.4273,2.519,1.8636,-6.6278,0.5609,2.2575,-0.197,342369,2021-05-19 16:36:36:785
-3.1158,-11.6955,-12.4597,-1.0608,-9.1829,-3.274,-0.5049,6.7499,-4.1492,0.0217,-1.0119,0.3567,342868,2021-05-19 16:36:37:284
4.4566,-11.5831,0.734,-1.3098,-9.2143,3.0905,0.5988,1.8586,1.2235,1.8991,2.7155,-0.0933,343368,2021-05-19 16:36:37:784
-8.0046,-27.0227,-12.0553,-0.4584,-9.1484,-3.5025,-0.8887,9.8456,8.4254,0.7762,0.1981,-0.1723,343868,2021-05-19 16:36:38:284
-1.5571,-11.9949,-12.2252,-1.662,-9.2518,2.7952,1.8452,-2.9271,-9.9709,0.698,2.2814,-0.1907,344369,2021-05-19 16:36:38:785
-0.2477,-1.4847,-1.9187,-0.8526,-9.305,-2.9766,0.8392,7.4717,-0.608,-0.1755,-3.0637,-0.6721,344868,2021-05-19 16:36:39:284
5.8047,-11.2193,2.2687,-1.4312,-9.2073,3.0573,-0.3627,0.8796,-0.0595,1.9744,-0.4704,0.4123,345368,2021-05-19 16:36:39:784
-2.613,-26.1177,-10.171,-1.734,-9.11,-3.1894,-2.2886,0.5215,-9.4627,1.0392,-0.5024,-0.4682,345868,2021-05-19 16:36:40:284
3.9156,-12.8925,-5.5576,-1.8029,-9.0165,3.4091,-0.2891,-1.2326,-2.1798,1.2611,-0.1683,0.1002,346376,2021-05-19 16:36:40:792
-11.3898,-19.2299,-12.6323,-0.649,-9.6519,-1.6094,-3.3683,9.2746,5.3332,-0.8793,1.9436,0.3569,346868,2021-05-19 16:36:41:284
5.6946,-10.8673,-2.0503,-0.1996,-9.4946,2.4461,0.4672,-0.1906,-1.3631,1.7099,2.9834,-0.441,347368,2021-05-19 16:36:41:784
5.2445,2.1733,-11.1909,7.644,-6.0729,-0.9273,0.1925,6.7357,-6.7191,-0.3016,1.7169,-0.6588,347868,2021-05-19 16:36:42:284
6.7621,-8.2457,-1.6361,2.3473,-9.5215,-0.0285,4.1904,0.7675,-1.6824,-1.1632,-0.0977,-0.2798,348369,2021-05-19 16:36:42:785
9.0655,-2.5238,-3.0775,7.6035,-6.1476,-0.7513,-3.9726,7.2879,-0.6058,-2.1309,1.6693,-1.428,348868,2021-05-19 16:36:43:284
1.6926,-2.0521,11.2406,2.4512,3.2464,8.9232,-0.6349,-3.0856,-3.8774,1.1514,3.0828,-1.6223,349369,2021-05-19 16:36:43:785
2.0112,3.501,8.5472,0.2635,4.7957,8.55,-0.913,-2.3415,0.0171,1.0047,0.3236,0.9447,349868,2021-05-19 16:36:44:284
-1.3956,3.7307,10.4169,0.3562,5.0154,8.4196,-1.1724,-1.9452,-1.2868,0.5029,-0.0455,0.0231,350368,2021-05-19 16:36:44:784
-1.7309,3.7594,11.8343,-0.0088,4.9277,8.4787,-0.5474,-0.6103,-1.9331,-0.0699,0.1119,-0.087,350868,2021-05-19 16:36:45:284
1.3409,5.549,7.7752,1.2868,5.6985,7.8767,-1.6825,-1.7493,-2.428,0.4003,-0.5763,0.5241,351368,2021-05-19 16:36:45:784
-1.2209,5.3396,9.5635,0.3121,5.4116,8.1724,-0.1976,-0.9161,-1.3036,0.6021,0.0686,-0.181,351870,2021-05-19 16:36:46:286
-1.4662,4.7447,9.5671,-0.0582,5.6507,8.0148,-0.4035,-0.9572,-0.2035,0.4022,-0.3824,-0.0687,352367,2021-05-19 16:36:46:783
-1.5966,5.9201,8.1293,-0.0015,5.7189,7.9664,-0.0266,-1.6041,-2.1703,0.2949,-0.6596,-0.6667,352868,2021-05-19 16:36:47:284
-0.6727,6.4612,7.5212,0.2126,6.4648,7.371,-1.0443,-2.7886,-0.1308,1.2448,-1.4248,-0.4699,353368,2021-05-19 16:36:47:784
-1.1276,4.4189,5.6456,-0.3657,5.6863,7.9814,-0.5177,-0.7361,-1.8844,0.1694,-0.1886,-0.068,353868,2021-05-19 16:36:48:284
-0.9371,4.6896,7.9104,-0.1646,5.295,8.2526,-1.5747,-1.8544,-1.8932,0.009,0.0753,0.5551,354368,2021-05-19 16:36:48:784
-0.1089,5.8232,7.3717,-0.1157,5.3831,8.1963,-0.5305,-0.7829,-2.2873,0.1608,-0.1788,-0.0328,354867,2021-05-19 16:36:49:283
-2.0647,4.1402,7.9391,-0.1785,5.3327,8.228,-0.4773,-0.9467,-1.6491,-0.1898,-0.6002,0.3047,355368,2021-05-19 16:36:49:784
3.9359,6.6861,8.6824,1.3341,4.7628,8.468,1.3778,0.3995,-4.3214,-0.9871,-0.1078,-0.2599,355871,2021-05-19 16:36:50:287
15.4026,-1.1856,5.5678,8.3259,-4.8335,-1.8673,6.9753,2.5747,2.8837,0.7368,2.4794,1.5247,356368,2021-05-19 16:36:50:784
9.5704,-5.4446,-5.5433,7.5555,-4.4063,-4.435,-3.7914,1.7882,3.7705,-1.9996,0.6583,1.3237,356871,2021-05-19 16:36:51:287
10.5879,-19.5458,0.5378,1.263,-9.7248,0.0523,0.922,2.8713,1.0801,1.5019,0.697,3.2431,357368,2021-05-19 16:36:51:784
2.4266,-17.8053,-20.1042,-1.21,-8.3066,-5.0702,3.7383,5.9539,-4.6713,0.3908,-2.0744,0.0421,357868,2021-05-19 16:36:52:284
3.827,-12.1241,-0.4845,-3.3092,-9.1622,1.1283,-0.0287,-1.2061,-5.2512,0.48,0.8043,0.0796,358368,2021-05-19 16:36:52:784
-1.2652,-15.6673,-25.4982,-2.2364,-8.4379,-4.4688,-0.6528,8.6966,8.0207,-0.8323,-2.3541,-0.3561,358868,2021-05-19 16:36:53:284
2.6468,-12.9838,1.153,-3.4044,-9.0689,1.528,1.8467,-3.143,-6.6284,1.3724,-1.6789,1.0465,359368,2021-05-19 16:36:53:784
-0.1615,-10.7094,-19.5942,-2.7536,-8.5135,-4.0135,0.7316,6.7625,-1.3032,0.2466,-1.8278,0.241,359868,2021-05-19 16:36:54:284
-2.0169,-10.7955,-5.45,-3.4494,-8.9981,1.8182,-0.4462,-0.3462,-4.9522,0.4667,0.9063,-0.2278,360368,2021-05-19 16:36:54:784
-16.5395,-13.2876,-7.9014,-2.8323,-8.44,-4.1127,-2.6436,-9.7481,-11.3191,-1.6496,-1.6898,-0.201,360868,2021-05-19 16:36:55:284
4.3202,-13.0244,-1.8637,-3.455,-8.988,1.8573,1.9383,-2.3035,-4.7274,1.1803,0.2616,0.7239,361368,2021-05-19 16:36:55:784
-1.215,-16.5867,-20.4562,-2.6586,-8.7061,-3.6477,-1.1792,9.0986,3.642,0.5117,-1.672,0.56,361868,2021-05-19 16:36:56:284
3.7289,-11.8155,-1.7151,-3.5403,-8.9246,1.9969,-1.505,2.0898,-2.5853,0.6507,1.2425,-0.1359,362368,2021-05-19 16:36:56:784
-8.1577,-20.3408,-7.619,-2.6298,-8.7513,-3.5594,0.6053,4.1835,-7.7429,0.1988,-0.3503,0.5267,362868,2021-05-19 16:36:57:284
-3.6233,-11.1162,-10.7216,-3.5905,-8.8178,2.3504,1.1684,-0.8005,-3.7057,1.5137,-0.8567,0.5973,363368,2021-05-19 16:36:57:784
-4.0208,-18.7223,-12.0721,-1.6541,-8.8572,-3.8709,-1.3289,7.9203,6.4903,0.8865,-1.3475,-0.4757,363869,2021-05-19 16:36:58:285
-3.9873,-11.6883,1.0286,-2.3351,-9.2309,2.3468,-2.451,-4.789,-2.4628,0.4279,-0.7101,-1.2486,364369,2021-05-19 16:36:58:785
19.9896,-16.9388,-15.8043,6.5324,-6.985,-2.1699,-6.5862,7.9939,0.3966,-2.1622,-0.0533,0.5773,364868,2021-05-19 16:36:59:284
6.827,-9.469,-0.4199,2.547,-9.4677,0.2132,1.1925,-0.7046,-0.9177,0.6564,-0.3787,0.9147,365368,2021-05-19 16:36:59:784
4.7967,-5.38,-4.2793,6.6379,-6.0743,-3.9002,-3.981,4.1989,3.2899,0.2833,-1.197,-0.0738,365868,2021-05-19 16:37:00:284
11.5265,-4.2978,-5.2298,6.2752,-7.3932,1.4606,-3.7147,3.6643,-5.709,0.3673,-0.9511,2.1041,366370,2021-05-19 16:37:00:786
2.6575,0.1804,5.3629,7.7324,1.0124,5.9461,-0.6745,-2.6414,-3.0541,1.0224,3.5793,-0.133,366868,2021-05-19 16:37:01:284
-2.7508,4.2215,8.8753,1.5042,3.8874,8.8767,-1.0758,-0.963,-2.4789,-0.5372,-0.0831,-0.0681,367368,2021-05-19 16:37:01:784
-1.1934,4.255,6.5492,0.7949,4.4098,8.7231,-1.1247,-0.7927,-2.1573,0.1011,-0.0052,-0.5076,367868,2021-05-19 16:37:02:284
-0.5303,5.0031,3.9517,0.6343,4.8,8.5281,-1.2168,-1.5234,-1.5183,0.595,-0.1188,0.7122,368368,2021-05-19 16:37:02:784
-0.5818,4.5006,6.7445,0.5244,4.8147,8.5272,-0.89,-1.6879,0.359,0.21,-0.0179,-0.0469,368868,2021-05-19 16:37:03:284
-2.1736,2.9755,6.9766,0.2211,4.3293,8.7965,-0.6589,-1.5641,-0.7219,-0.458,0.3543,0.3705,369368,2021-05-19 16:37:03:784
0.1953,4.2191,5.703,0.3494,4.4834,8.7148,2.2983,-1.8994,2.9553,0.0825,-0.5666,-0.5922,369868,2021-05-19 16:37:04:284
-1.2245,3.6099,6.0514,0.8795,4.4292,8.7051,-3.1327,-2.1424,0.9664,0.0368,0.29,0.6568,370368,2021-05-19 16:37:04:784
-2.2959,4.8392,7.4674,-0.8308,5.3848,8.1538,0.3014,-0.724,-0.0398,0.4598,0.2271,8.00E-04,370868,2021-05-19 16:37:05:284
-4.1189,5.47,6.9407,-0.4288,5.1387,8.3415,-1.4551,1.0514,1.0848,0.3584,-0.2336,0.3589,371368,2021-05-19 16:37:05:784
2.0662,3.2255,10.1536,0.3923,4.1405,8.881,-2.1454,0.9756,2.6611,-0.0918,-0.2792,-0.1918,371869,2021-05-19 16:37:06:285
-2.7628,1.6525,16.7542,0.0389,3.939,8.9807,-1.1853,1.2649,1.1758,0.237,0.2905,-0.1025,372368,2021-05-19 16:37:06:784
0.9242,4.3496,11.93,0.4349,4.6946,8.599,0.0494,-0.4079,-0.6541,-0.1979,0.2252,0.0927,372869,2021-05-19 16:37:07:285
-0.7732,4.1091,9.0703,-0.4739,4.1484,8.8734,-0.6498,0.8548,-1.9717,-0.2955,-0.0322,-0.1587,373368,2021-05-19 16:37:07:784
-1.1898,5.0668,9.5611,-0.3612,4.1551,8.8755,-1.0031,0.5274,-0.409,-0.0527,-0.3083,0.0693,373868,2021-05-19 16:37:08:284
0.0491,5.403,8.2406,-0.2998,4.2835,8.8166,0.0442,0.5251,-0.8793,0.0657,-0.1545,-0.0913,374368,2021-05-19 16:37:08:784
-0.5662,5.0115,8.6405,0.0147,3.6941,9.0842,-0.7944,-0.0077,-2.7535,0.2541,-0.1495,0.2045,374868,2021-05-19 16:37:09:284
-0.6631,4.1976,4.9406,-0.5617,4.1543,8.8655,-0.0498,-0.1704,-3.5967,0.2196,0.0701,-0.3763,375368,2021-05-19 16:37:09:784
-0.9526,4.6944,5.7413,-0.5535,4.2043,8.8424,0.1064,-0.1171,-3.6371,0.16,-0.0055,0.3946,375868,2021-05-19 16:37:10:284
-0.1926,3.6171,6.1819,-0.3957,4.0011,8.9445,2.2392,-0.7862,-0.348,0.2993,0.027,-0.2724,376368,2021-05-19 16:37:10:784
-0.0802,3.5895,5.0806,-0.6462,3.4217,9.1676,0.3141,-0.0952,1.0878,-1.3793,-0.3082,0.2372,376868,2021-05-19 16:37:11:284
0.1068,2.4547,10.5775,-0.5369,4.1478,8.87,1.5635,-0.8311,4.9023,0.1037,0.2349,-0.3369,377368,2021-05-19 16:37:11:784
-1.1791,3.2925,8.2848,-0.6426,3.9799,8.9397,-2.8243,-1.5103,5.5658,0.0047,0.0967,0.1075,377868,2021-05-19 16:37:12:284
0.486,4.005,9.2665,-0.3943,4.2986,8.8055,1.4565,0.0517,2.023,-0.1222,-0.3236,-0.3925,378368,2021-05-19 16:37:12:784
-0.9754,3.1454,6.9347,-0.5433,4.2771,8.808,-1.4448,-0.7712,1.2557,0.5123,0.1446,0.2387,378868,2021-05-19 16:37:13:284
1.5574,4.5796,9.3682,-0.8932,4.8792,8.4597,-0.9446,1.7156,1.8,-0.2088,-0.1935,-0.3851,379368,2021-05-19 16:37:13:784
-2.607,4.2933,9.3383,-1.065,4.5706,8.6108,-1.1438,2.2664,1.8276,-0.3592,-0.045,0.0341,379868,2021-05-19 16:37:14:284
0.1355,3.1992,13.3352,-0.4579,4.3939,8.7552,0.1796,1.1181,1.6018,-0.3554,-0.2382,-0.0644,380368,2021-05-19 16:37:14:784
-0.9323,6.655,9.816,-0.5347,4.5035,8.695,0.0414,0.0079,-0.5642,0.3874,-0.0292,-0.0496,380868,2021-05-19 16:37:15:284
-1.2389,4.8021,8.9973,-0.4693,4.5571,8.6708,-0.6251,0.0944,-0.7383,-0.1225,-0.3183,-0.1274,381368,2021-05-19 16:37:15:784
-0.5339,4.8703,8.5292,-0.3994,4.4897,8.7094,-0.1386,-0.0446,-1.2394,0.0018,0.0783,0.1156,381869,2021-05-19 16:37:16:285
0.4226,4.6334,6.8222,-0.7282,4.6895,8.5819,0.5254,-1.1372,-1.0005,-0.1309,-0.1883,0.1718,382367,2021-05-19 16:37:16:783
-1.2413,3.9317,7.6887,-0.5823,4.4973,8.6951,1.1775,-0.5031,-1.7765,-0.2185,-0.3853,-0.2401,382868,2021-05-19 16:37:17:284
0.3185,4.2311,6.3936,-0.8756,4.6003,8.6163,0.1991,-0.3423,-1.7642,-0.1884,-0.0979,0.0866,383368,2021-05-19 16:37:17:784
0.4765,3.5572,6.1496,-0.809,4.5428,8.6533,2.4423,-0.2001,1.8849,0.2714,0.3503,-0.3005,383868,2021-05-19 16:37:18:284
0.096,2.9862,9.81,-1.1613,4.4047,8.6845,-1.6166,-0.2231,0.1379,-0.1309,-0.2532,0.1889,384368,2021-05-19 16:37:18:784
2.8131,-1.037,1.7408,7.106,3.7672,5.611,-3.3206,-4.163,-0.1245,0.9407,-3.0214,2.1461,384870,2021-05-19 16:37:19:286
7.4925,-5.234,4.5096,7.0247,-5.764,-3.6879,1.5964,-0.5186,8.208,1.4621,-2.2626,0.0455,385368,2021-05-19 16:37:19:784
8.2872,-12.4379,-16.9199,-0.6741,-8.6658,-4.541,7.1592,-2.997,3.0515,-0.21,1.8881,4.2434,385875,2021-05-19 16:37:20:291
-12.6969,-19.0214,-8.1841,-6.2066,-7.2967,-2.0993,-0.5103,-9.797,1.8267,3.7538,2.4347,1.242,386368,2021-05-19 16:37:20:784
-0.9993,-6.431,-1.2867,-4.2525,-7.6271,-4.4625,-8.096,-6.0968,0.4665,-1.9184,2.2036,-0.348,386871,2021-05-19 16:37:21:287
1.7444,-0.0173,14.0668,-5.1239,-7.4889,-3.7193,1.5705,2.1864,8.5571,1.3561,1.1359,-0.0017,387368,2021-05-19 16:37:21:784
-10.9277,-7.7524,-2.5747,-4.8229,-7.9017,-3.2362,-2.0901,-8.2719,4.9536,-2.3171,0.1936,-1.3914,387868,2021-05-19 16:37:22:284
0.1714,-5.3201,4.5144,-5.8584,-7.8263,-0.7734,-4.1615,-8.6076,3.3985,3.0756,3.1544,1.2864,388368,2021-05-19 16:37:22:784
-2.9387,-7.5395,3.2213,-4.0126,-6.6585,-5.9778,2.1593,-3.5854,6.0409,-3.8102,-2.3147,-1.2593,388869,2021-05-19 16:37:23:285
-4.7342,-9.3637,-0.4008,-4.3565,-8.5742,-1.9167,0.5819,-4.4893,0.6053,2.0101,-0.9399,1.2029,389369,2021-05-19 16:37:23:785
-6.5991,-6.8166,4.0929,-3.2155,-8.5846,-3.4836,-7.3028,0.9369,3.5105,-2.4869,1.5926,-1.0584,389868,2021-05-19 16:37:24:284
-7.1617,-14.9731,-2.5484,-4.364,-8.6065,-1.7477,-0.3169,-0.9146,7.562,3.9988,0.8674,0.3688,390368,2021-05-19 16:37:24:784
-2.1867,-7.3816,5.6539,-3.8344,-8.6596,-2.5454,-4.3025,-4.913,3.725,-2.5654,1.5163,-0.6281,390869,2021-05-19 16:37:25:285
-1.349,-5.4302,2.2424,-4.2208,-8.304,-3.0659,-0.7001,0.8344,8.2933,1.6274,2.1065,0.379,391368,2021-05-19 16:37:25:784
-9.4409,-11.7577,0.6287,-4.1436,-8.4673,-2.7028,-5.6901,-7.6323,1.4199,-1.877,1.4039,-1.1281,391868,2021-05-19 16:37:26:284
-7.2144,-10.343,9.3526,-4.1227,-8.7727,-1.4878,-2.2453,9.4657,6.4413,2.0243,1.021,-0.3271,392368,2021-05-19 16:37:26:784
-10.8918,-8.2313,3.1161,-4.5755,-8.6729,-0.1248,1.8297,-3.6912,2.6903,-2.5778,2.9764,-1.284,392868,2021-05-19 16:37:27:284
-2.4885,-10.8506,-6.3861,-0.2065,-9.7733,-0.7815,-1.8621,-0.1105,10.9537,0.2274,1.2754,0.731,393369,2021-05-19 16:37:27:785
5.4287,-8.8657,0.0924,5.7184,-7.9525,0.4776,-3.8426,-0.5458,1.1714,-1.561,1.9129,-1.8025,393868,2021-05-19 16:37:28:284
-1.4973,-4.7982,-2.3423,7.9158,-4.686,-3.3989,4.3769,-4.3448,3.6686,1.3188,0.3709,1.5177,394368,2021-05-19 16:37:28:784
15.4337,-7.2906,11.3925,4.3617,-7.8105,4.0178,13.0035,-0.4221,7.19,-0.752,2.8061,-1.1701,394868,2021-05-19 16:37:29:284
-1.8625,1.8766,7.7222,-1.3,0.219,9.7176,1.7275,0.1783,-0.1109,1.5108,-0.1865,0.558,395368,2021-05-19 16:37:29:784
1.1767,2.5528,7.7847,-1.7456,0.397,9.6419,0.205,2.0978,0.2399,0.1104,-0.5601,0.3425,395868,2021-05-19 16:37:30:284
-1.7644,4.1151,11.5792,-1.8673,1.2183,9.5498,1.953,2.8984,-0.7407,0.0681,0.5082,-0.1993,396368,2021-05-19 16:37:30:784
0.6694,3.2746,13.0397,-1.211,1.5593,9.6058,-0.1854,2.1564,0.0236,-0.3367,-0.2718,0.122,396868,2021-05-19 16:37:31:284
-0.5841,3.6936,11.013,-0.1908,1.3593,9.7101,0.0994,2.5742,-4.0102,-0.3065,-0.1176,-0.2353,397368,2021-05-19 16:37:31:784
0.2336,3.684,10.43,-0.1662,1.701,9.6566,1.0321,0.7752,-1.2364,0.3405,0.3491,-0.1646,397868,2021-05-19 16:37:32:284
12.5919,-8.2313,6.9491,9.337,-1.1581,2.7659,-4.3333,-0.6267,-1.5497,0.1017,-2.6239,1.2922,398368,2021-05-19 16:37:32:784
10.1474,-11.2047,-0.0751,8.4418,-4.7469,-1.5406,-4.0263,0.6892,-3.3926,-0.0226,0.5948,-0.7211,398868,2021-05-19 16:37:33:284
3.1065,-5.4087,-0.8533,8.3417,-4.9367,-1.4885,-8.167,3.7748,-1.7742,-0.0263,-1.2982,0.2746,399368,2021-05-19 16:37:33:784
-1.0543,0.4041,2.1153,9.0624,-3.747,-0.0603,-8.5858,4.4632,-1.9087,-0.45,-1.5337,0.9661,399868,2021-05-19 16:37:34:284
6.0176,-4.1806,-7.8583,5.1199,-7.2085,-4.2421,-3.2761,4.2252,2.9669,0.9856,-0.8761,0.8796,400368,2021-05-19 16:37:34:784
4.78,-10.6182,-0.7696,1.7829,-9.5601,1.2636,0.1729,0.4419,-5.8525,1.4033,0.5411,1.0245,400868,2021-05-19 16:37:35:284
-0.2548,-6.5554,-16.5969,-1.1863,-8.5694,-4.6183,0.2497,8.3728,6.6327,0.9483,-0.5119,-0.1846,401368,2021-05-19 16:37:35:784
0.7005,-12.7681,-2.1939,-1.2208,-9.5795,1.7066,4.5617,-3.2715,-1.0202,0.4171,1.8109,-0.4337,401868,2021-05-19 16:37:36:284
-3.6544,-1.6741,-6.4125,-1.9363,-8.663,-4.1682,-1.689,1.7373,-8.9186,-0.5925,-2.1088,-0.2094,402368,2021-05-19 16:37:36:784
1.9645,-10.4698,-4.6095,-1.701,-9.4169,2.1446,-1.4531,1.0618,-1.326,1.8952,-0.7368,0.6802,402869,2021-05-19 16:37:37:285
-8.9839,-11.5065,-15.1077,-0.833,-8.8586,-4.1233,-0.0097,10.805,6.8747,0.8022,-0.4482,0.4149,403368,2021-05-19 16:37:37:784
2.3189,-10.52,-5.2011,-1.5698,-9.4851,1.9336,8.4777,-4.367,-1.7208,0.0738,0.9224,-0.518,403869,2021-05-19 16:37:38:285
-11.6578,-12.227,-16.8721,-1.4876,-8.9126,-3.811,-6.4231,-4.0753,-11.3599,0.0353,-0.8027,-0.3021,404368,2021-05-19 16:37:38:784
5.6608,-15.9739,1.5625,-1.4877,-9.4422,2.1915,1.9888,-3.2729,-8.0647,0.6214,2.2682,-0.4679,404868,2021-05-19 16:37:39:284
6.6808,-33.7813,-7.011,-0.7507,-9.0046,-3.811,-1.6915,-9.5425,-2.671,0.4471,-1.0597,0.343,405369,2021-05-19 16:37:39:785
5.0958,-13.2374,0.3245,-0.9878,-9.6779,1.2382,6.6545,-3.3524,-3.5208,-1.4256,0.327,-1.0209,405868,2021-05-19 16:37:40:284
-2.8095,-19.5769,-6.3431,-1.5067,-8.7772,-4.1063,-3.7543,-9.4695,-9.9704,0.2323,-1.3349,-0.1327,406371,2021-05-19 16:37:40:787
6.0009,-14.2645,0.6215,-1.5626,-9.3239,2.6065,2.0798,-2.9364,-9.3752,0.5169,1.997,-0.352,406868,2021-05-19 16:37:41:284
-5.8714,-9.979,-18.9287,-1.7022,-9.0798,-3.291,1.3138,6.6867,-2.7426,-0.7631,-1.0187,0.649,407368,2021-05-19 16:37:41:784
4.5308,-14.4488,-1.5093,-1.1654,-9.6442,1.342,4.7454,-3.0675,-3.129,-2.5579,-1.1116,-0.8625,407869,2021-05-19 16:37:42:285
-2.8837,-11.6788,0.8704,-1.9512,-8.8726,-3.6933,-5.1872,-13.4121,-6.3936,0.8117,-1.058,1.2173,408368,2021-05-19 16:37:42:784
-2.1867,-15.7274,-3.5372,-1.2674,-9.4966,2.0927,6.4643,-4.0212,-4.9912,-0.8811,0.7466,-0.7807,408868,2021-05-19 16:37:43:284
-0.6093,-9.2034,9.6616,-0.8894,-9.3458,-2.8346,-3.5076,-0.339,8.1273,0.5805,2.0272,0.3761,409369,2021-05-19 16:37:43:785
-3.3817,-16.8646,0.1427,-0.4219,-9.7908,0.3653,2.2281,-4.1202,-3.1901,-3.0141,-0.7646,-0.9607,409868,2021-05-19 16:37:44:284
-1.6265,-11.6716,13.9878,-1.3908,-9.0233,-3.58,-0.383,2.9131,4.4768,3.8618,4.8375,-0.2906,410368,2021-05-19 16:37:44:784
-5.0121,-14.8247,9.4869,-1.1774,-9.4473,-2.352,-3.4812,-7.9094,0.7744,-2.9192,-1.1217,-1.16,410868,2021-05-19 16:37:45:284
2.7377,-5.1048,8.5819,-1.1867,-9.6631,-1.1773,0.3817,4.6244,8.1045,2.747,1.6201,0.1196,411368,2021-05-19 16:37:45:784
-4.9639,-10.7644,1.3995,-0.5986,-9.6495,-1.6428,-0.2332,-5.5946,5.0273,-2.9632,-2.5314,0.651,411868,2021-05-19 16:37:46:284
-3.1756,-8.6264,2.9438,-1.1092,-9.4529,-2.3628,-0.7142,0.3421,5.8668,1.2629,1.4352,0.2097,412369,2021-05-19 16:37:46:785
-7.5855,-16.1103,-1.3944,-0.9258,-9.1932,-3.2861,-4.4372,-5.2622,6.2392,-3.4937,-0.3439,0.6834,412868,2021-05-19 16:37:47:284
0.5351,-20.8723,3.6811,-1.5324,-9.6518,-0.8157,-0.1184,-0.1726,2.077,2.0815,2.5333,1.1487,413368,2021-05-19 16:37:47:784
-7.0636,-14.3794,-1.3801,-1.2568,-9.4571,-2.2702,-2.0548,-6.3006,3.0365,-2.5617,-2.2841,-0.7558,413868,2021-05-19 16:37:48:284
-4.5404,-14.7051,-3.0607,-1.1521,-9.7315,0.375,0.3468,-7.2907,0.9949,1.6836,0.8172,0.5612,414369,2021-05-19 16:37:48:785
-5.17,-19.139,-2.4287,-1.0018,-9.3152,-2.8973,-5.1878,-6.3018,5.4012,-3.3728,-0.4591,0.337,414868,2021-05-19 16:37:49:284
2.685,2.2932,0.1953,-1.1432,-9.7109,-0.7502,3.5021,5.1084,4.1499,1.9773,6.1602,1.7343,415368,2021-05-19 16:37:49:784
-3.9921,-10.2114,3.3293,-0.4862,-9.5892,-1.9952,-3.4978,-7.6367,3.1106,-1.5433,-1.6749,-0.8776,415868,2021-05-19 16:37:50:284
0.9733,-1.7913,2.6252,-1.0611,-9.726,0.6697,1.1193,-8.4968,5.2688,3.3083,4.6255,0.4215,416368,2021-05-19 16:37:50:784
-1.392,-9.9742,-3.9344,-0.7337,-9.2937,-3.0429,-4.9781,-3.9443,5.7281,-2.5358,-1.6471,0.8621,416868,2021-05-19 16:37:51:284
2.0459,-26.5511,3.7576,-1.2073,-9.6998,-0.7919,-2.2928,-1.1689,2.947,1.8106,-1.0114,-0.0347,417368,2021-05-19 16:37:51:784
-0.6476,-2.0186,7.0615,-0.6082,-9.3859,-2.7759,1.9187,3.2201,5.0228,-0.8381,-2.1259,-1.6322,417869,2021-05-19 16:37:52:285
-1.4734,-2.5262,4.1097,-0.9657,-9.6312,1.5739,0.7359,3.2449,2.8011,2.47,3.4501,0.5908,418368,2021-05-19 16:37:52:784
-1.2245,-0.3141,5.0243,-0.5633,-9.3144,-3.0158,-4.8084,-1.4875,7.0827,-2.0679,-3.7434,-0.4198,418868,2021-05-19 16:37:53:284
-0.8294,-2.1407,-2.6512,-1.3811,-9.7079,0.1419,-0.5248,-8.1795,4.0243,2.4497,-1.6238,-0.1863,419368,2021-05-19 16:37:53:784
-1.2365,2.9252,5.709,-0.1707,-9.4348,-2.6695,-1.4647,7.6634,9.3079,-0.0199,-3.9609,-1.5702,419868,2021-05-19 16:37:54:284
0.1068,-6.8548,-1.3944,-1.0693,-9.4398,2.4326,-1.2229,5.9197,-6.1499,1.4182,-0.124,0.7211,420368,2021-05-19 16:37:54:784
-1.55,-0.4959,6.1807,-0.0075,-9.2641,-3.2166,1.2021,4.9606,6.5227,-0.6002,-3.0069,-1.9387,420869,2021-05-19 16:37:55:285
2.2325,-7.008,-2.6177,-1.5599,-9.1788,3.08,3.3508,1.2453,-4.6526,1.8535,2.7936,-0.0594,421369,2021-05-19 16:37:55:785
-0.5327,1.235,3.4107,-0.6436,-9.3085,-3.0181,-0.2728,10.0822,5.9603,0.6134,-0.6038,0.1087,421868,2021-05-19 16:37:56:284
0.0227,-6.9075,1.8497,-1.1619,-9.2971,2.8954,0.1287,1.8927,1.0495,1.9837,4.0094,-0.3851,422369,2021-05-19 16:37:56:785
-0.4965,-11.0061,-22.1919,-0.4343,-9.3105,-3.0491,-0.6329,9.5534,7.6308,-0.3124,-2.0842,-0.2431,422868,2021-05-19 16:37:57:284
5.4311,-12.469,-0.1229,-1.2677,-9.3381,2.7134,2.4518,-3.1757,-7.9468,0.9354,1.1163,0.2327,423368,2021-05-19 16:37:57:784
-11.9979,-18.7965,-16.1516,-1.5337,-9.2903,-2.7403,2.2684,5.1943,-6.119,0.1956,-0.8048,0.8981,423868,2021-05-19 16:37:58:284
4.8924,-17.4488,-0.2883,-1.8845,-9.1934,2.846,2.3577,-0.6705,-7.7926,1.8058,0.4134,0.4401,424369,2021-05-19 16:37:58:785
-7.0349,-0.2207,-9.3356,-1.0983,-9.1642,-3.3139,2.1093,-7.3721,-6.0317,0.8737,-0.8485,1.2199,424868,2021-05-19 16:37:59:284
8.0121,-11.8825,-3.8961,-1.4211,-9.5052,1.9497,8.0188,-3.5783,-2.8917,-0.3036,1.3917,-0.5036,425368,2021-05-19 16:37:59:784
3.1113,-7.0534,9.475,-1.9321,-9.0182,-3.333,-5.3628,-13.5991,-13.729,-1.3452,-0.5927,0.9286,425867,2021-05-19 16:38:00:283
-1.8972,-14.9013,0.3341,-1.1829,-9.343,2.7347,3.2904,-3.7201,-6.5094,-1.6957,-0.4733,-0.6211,426368,2021-05-19 16:38:00:784
0.516,-9.6368,7.7465,-0.5665,-9.4296,-2.633,-0.2124,-6.8153,9.2184,1.4118,1.8022,-0.3691,426868,2021-05-19 16:38:01:284
4.8111,-16.2395,5.776,-0.3085,-9.7887,0.5057,3.4602,-5.0942,-1.6399,-0.7642,0.4351,-0.1613,427368,2021-05-19 16:38:01:784
5.3761,-23.4697,-4.7246,-1.594,-9.0988,-3.2926,-5.2269,-1.6008,6.0032,-0.7397,0.8103,0.5429,427868,2021-05-19 16:38:02:284
-1.2508,-19.2012,2.2639,-0.387,-9.6728,-1.5679,-3.4318,-7.9039,2.4681,-2.6418,-0.0858,-1.2628,428368,2021-05-19 16:38:02:784
2.3716,-8.2887,-3.877,0.3375,-9.7975,-0.2571,-0.1933,5.4627,1.3549,4.5308,4.8995,-0.212,428868,2021-05-19 16:38:03:284
-1.2389,-16.6705,-3.9081,0.0149,-9.6372,-1.8152,3.0981,-7.5487,5.072,-3.0225,-1.4381,-2.1613,429368,2021-05-19 16:38:03:784
3.1783,-7.9729,10.3893,-0.6618,-9.6504,-1.6133,-0.2774,2.5834,4.8479,3.6455,4.253,-0.2773,429869,2021-05-19 16:38:04:285
-0.7313,-8.1643,-2.8594,-0.9508,-9.2911,-2.9904,-3.9884,-4.4836,6.2852,-2.7502,-0.3485,0.3986,430368,2021-05-19 16:38:04:784
-5.3279,-16.3068,5.9602,-1.5457,-9.6574,-0.7188,-0.302,-1.5809,0.7758,0.9729,0.6309,1.5378,430868,2021-05-19 16:38:05:284
2.0124,-9.201,-2.6584,-0.9543,-9.5235,-2.1359,-3.1566,-8.8414,1.3727,-3.0721,-0.6128,-0.8428,431369,2021-05-19 16:38:05:785
1.6005,-17.9874,4.4617,-0.6701,-9.6647,1.5212,1.8373,0.2983,3.7794,3.5875,5.0361,0.048,431868,2021-05-19 16:38:06:284
-9.5752,-17.621,7.2939,-0.1419,-8.9941,-3.9059,-4.0681,-6.114,5.3195,-3.0098,-3.2569,-0.5317,432377,2021-05-19 16:38:06:793
0.947,-7.0726,-6.0197,-1.2055,-9.722,-0.4477,-1.1226,-8.4632,4.3134,1.4689,-0.8335,-0.0528,432868,2021-05-19 16:38:07:284
-2.7999,-10.6349,-3.9224,-1.0211,-9.3846,-2.6567,-5.3374,-9.3083,0.4271,-3.5046,-0.9215,0.5916,433368,2021-05-19 16:38:07:784
-1.7847,-5.4422,-3.9846,-0.711,-9.7012,1.2458,2.946,-4.3433,2.0383,3.0942,4.1863,1.063,433868,2021-05-19 16:38:08:284
-1.0857,-12.5575,5.0052,-0.5987,-9.258,-3.1784,-2.6348,-2.5281,4.5109,-2.0544,-1.9515,-0.4636,434369,2021-05-19 16:38:08:785
-3.5372,-2.7009,-3.4579,-1.0669,-9.7444,-0.2817,0.3537,-7.3542,2.2109,2.1592,-0.2987,-0.5317,434869,2021-05-19 16:38:09:285
-0.9658,-7.8099,-0.705,-1.1722,-9.4732,-2.2482,-3.5801,-6.0979,0.5969,-3.1697,-0.6874,0.9361,435368,2021-05-19 16:38:09:784
3.6787,-16.2395,4.3585,-0.7599,-9.6891,1.309,2.3076,0.8389,2.3159,1.735,2.4335,1.078,435868,2021-05-19 16:38:10:284
1.124,-5.4565,5.7688,-0.6238,-9.0694,-3.678,-2.8203,-1.2638,3.5051,-1.642,-1.9344,-1.5238,436368,2021-05-19 16:38:10:784
1.2296,-5.2914,2.63,-1.1858,-9.7238,0.4594,1.2204,-8.5542,3.2364,3.2859,5.0958,0.5514,436868,2021-05-19 16:38:11:284
-2.024,-14.8606,-7.5305,-0.8997,-9.324,-2.9023,-3.5148,-7.1486,8.0369,-1.3917,-3.1355,-2.2316,437368,2021-05-19 16:38:11:784
-1.3633,-5.0785,-4.9591,-0.8799,-9.6638,1.4164,2.0394,1.0027,1.5543,2.5547,0.7675,-0.0179,437868,2021-05-19 16:38:12:284
-0.516,2.7096,4.835,-0.4072,-9.1887,-3.4018,0.5651,-0.4062,3.5125,-2.1253,-2.1444,-0.6687,438368,2021-05-19 16:38:12:784
1.9382,-8.9447,0.2264,-1.1124,-9.6754,1.1489,2.7536,-7.2482,4.1497,2.2731,-1.5815,-0.43,438868,2021-05-19 16:38:13:284
1.7994,2.19,-5.1386,-0.4371,-9.3031,-3.071,-0.3067,8.0511,9.5273,0.1429,-3.717,-1.8493,439368,2021-05-19 16:38:13:784
1.232,-8.423,-5.3806,-1.3237,-9.3643,2.5937,1.1947,2.12,-4.4926,1.7153,-0.1268,0.6209,439868,2021-05-19 16:38:14:284
-1.6579,3.1789,3.0323,-0.5178,-9.3038,-3.0565,0.0915,5.6109,8.9641,0.5258,-0.7112,0.2692,440380,2021-05-19 16:38:14:796
-1.4782,-12.8064,-9.7834,-1.4389,-9.139,3.2524,1.3487,1.4894,-0.0975,2.3704,2.291,0.0878,440868,2021-05-19 16:38:15:284
3.2046,0.5982,4.3274,-0.4888,-8.9593,-3.9575,1.9817,7.8557,6.7304,-0.773,-2.2937,-0.9867,441368,2021-05-19 16:38:15:784
-2.8047,-4.0657,-2.5531,-0.7024,-9.6123,1.8113,-0.2971,4.549,-1.6468,1.8348,1.176,1.1644,441869,2021-05-19 16:38:16:285
0.2025,3.2243,4.5048,0.0273,-9.3579,-2.9324,1.0374,0.1424,3.7135,-1.8038,-1.474,-1.5488,442368,2021-05-19 16:38:16:784
0.3556,-6.7735,0.4612,-1.1804,-9.0704,3.5361,0.7624,3.7539,-2.271,3.3048,2.6063,-0.3844,442868,2021-05-19 16:38:17:284
-0.14,4.4716,3.4561,0.0195,-9.3305,-3.0186,-0.8069,10.7469,7.404,0.2355,-2.7074,-0.3088,443368,2021-05-19 16:38:17:784
-0.7002,-7.3505,1.7324,-0.7512,-9.4278,2.5927,2.2914,3.2354,-6.3174,1.3982,0.8524,0.6594,443868,2021-05-19 16:38:18:284
-11.3444,-24.3365,-14.2795,-0.9756,-9.3166,-2.9015,1.5209,6.9241,-4.6342,-1.1195,-2.8143,-1.4518,444368,2021-05-19 16:38:18:784
0.8608,-12.7872,-2.479,-1.8357,-9.0598,3.2742,1.0671,-0.2219,-2.3073,2.1416,2.0575,0.0137,444868,2021-05-19 16:38:19:284
1.0355,-2.3061,-7.2096,-1.2034,-9.3531,-2.6912,-0.0267,12.1258,6.3623,0.5641,-0.4699,-0.3873,445369,2021-05-19 16:38:19:785
7.5691,-10.9869,-1.0519,-1.842,-9.2624,2.6429,2.2885,1.4516,-4.809,0.4549,2.0725,-0.1345,445869,2021-05-19 16:38:20:285
-10.1593,-18.4923,-13.4964,-1.7857,-9.2301,-2.7905,-1.8968,5.0298,-7.5505,0.9633,-0.1593,0.0673,446368,2021-05-19 16:38:20:784
5.0958,-13.9795,2.7212,-2.0262,-9.2859,2.416,0.6732,-1.7664,-8.3284,-0.1125,1.1634,-0.5667,446868,2021-05-19 16:38:21:284
-0.7217,-8.4876,-16.7453,-0.9957,-9.3835,-2.6699,0.3046,8.4871,2.2247,0.1961,-1.2884,-0.1484,447368,2021-05-19 16:38:21:784
0.5542,-16.2227,-1.5715,-1.18,-9.5509,1.8865,6.6336,-1.5807,-3.7106,0.3932,2.0757,0.2008,447868,2021-05-19 16:38:22:284
-1.4806,-33.7262,-16.3837,-1.3257,-9.1417,-3.2926,-6.6454,-14.6494,-13.5257,0.1862,-1.0774,1.1368,448368,2021-05-19 16:38:22:784
1.6531,-14.9372,-1.3394,-1.5807,-9.2885,2.7194,5.9802,-4.4755,-6.1741,-1.4276,-0.4149,-0.2158,448868,2021-05-19 16:38:23:284
6.1277,-30.6209,-14.5068,-1.1286,-9.3644,-2.6842,-1.6649,3.1115,-8.0643,0.8605,-0.7727,0.6276,449368,2021-05-19 16:38:23:784
0.5327,-15.8327,-1.8709,-0.7121,-9.6482,1.6047,5.3156,-3.6199,-2.5893,0.3476,1.4222,-0.6237,449868,2021-05-19 16:38:24:284
-12.8791,-10.5679,-1.3442,-0.8112,-9.228,-3.2182,-4.4547,-12.2298,-5.903,-0.5272,0.7874,0.1602,450368,2021-05-19 16:38:24:784
5.7855,-12.7944,-5.5816,-1.0213,-9.3774,2.6817,7.1506,-2.9972,-1.4656,-3.1202,-0.532,-0.5986,450868,2021-05-19 16:38:25:284
-7.4109,0.0332,-4.684,-1.4294,-9.1829,-3.1308,1.2567,-6.3237,2.1805,-0.1275,-1.2127,0.9683,451368,2021-05-19 16:38:25:784
7.241,-12.9598,-1.8326,-0.8544,-9.6201,1.7013,5.1059,-3.5799,-4.0943,0.058,0.8877,-0.5692,451868,2021-05-19 16:38:26:284
-10.2359,-12.414,-14.7583,-1.485,-9.0561,-3.4571,-4.6984,-16.8433,-10.0509,-1.2011,-0.3047,0.0214,452368,2021-05-19 16:38:26:784
7.3247,-14.662,2.1849,-1.7879,-9.0537,3.3172,4.0349,-4.2966,-9.5377,-1.2417,-1.3071,-0.3873,452868,2021-05-19 16:38:27:284
-5.601,-12.8853,10.885,-1.0673,-9.0574,-3.6047,-3.4056,-8.8524,-4.8735,0.6929,-0.4143,0.115,453368,2021-05-19 16:38:27:784
4.8278,-15.3538,-1.7557,-1.0865,-9.4212,2.4963,7.3036,-3.1684,-1.8638,0.2839,1.724,-0.9091,453868,2021-05-19 16:38:28:284
-5.68,-19.3807,-0.2764,-1.1668,-9.253,-3.0315,-5.3012,-2.5565,-12.6687,-1.0048,-0.4035,0.1425,454369,2021-05-19 16:38:28:785
2.3644,-12.9598,-2.7972,-0.9311,-9.7315,0.7759,1.8971,-2.4772,-3.2929,-2.0285,-1.0369,-0.3225,454870,2021-05-19 16:38:29:286
-15.2204,-11.2863,-6.3885,-0.9963,-9.0753,-3.5801,-3.9129,-14.2017,-6.4198,0.3567,0.9227,-0.2784,455368,2021-05-19 16:38:29:784
-0.262,-14.8032,0.9924,-1.1829,-9.3389,2.7489,7.4594,-3.8138,-2.8684,0.1435,2.1508,-0.7237,455868,2021-05-19 16:38:30:284
-11.2032,-10.6735,-4.1429,-0.8668,-9.3229,-2.916,-4.2759,-0.7661,-10.1893,-0.7133,0.2052,0.301,456369,2021-05-19 16:38:30:785
-0.7935,-14.6094,-3.3981,-0.5249,-9.7459,0.9556,3.7366,-2.9465,-3.5849,-2.108,-0.9471,-0.4752,456871,2021-05-19 16:38:31:287
-11.598,-4.2811,3.7887,-1.1565,-9.1433,-3.3515,-3.1584,-14.7812,-6.4268,0.7292,-1.3084,0.9419,457369,2021-05-19 16:38:31:785
3.5877,-11.2385,-0.5515,-1.2121,-9.3176,2.8077,7.0645,-4.844,-5.8072,0.0215,1.6501,-0.8425,457868,2021-05-19 16:38:32:284
-16.6448,-18.6697,3.4155,-0.6258,-9.3902,-2.7572,-2.4326,-5.8856,5.4776,-0.8214,0.4056,0.5995,458368,2021-05-19 16:38:32:784
0.5255,-14.8104,3.0658,-0.617,-9.6364,1.7116,5.8864,-3.1381,-3.0501,-1.9775,-1.0209,-0.7423,458868,2021-05-19 16:38:33:284
-9.1609,-18.0186,-5.3016,-1.3181,-9.1471,-3.2809,-1.7452,-6.8424,-7.5845,0.979,-0.9094,0.0075,459368,2021-05-19 16:38:33:784
2.0602,-15.3036,2.4147,-1.3629,-9.322,2.7227,2.9323,-2.7671,-8.7829,0.2566,1.9284,-0.7802,459868,2021-05-19 16:38:34:284
5.1224,-20.9321,6.0467,-0.9083,-9.0384,-3.6948,-4.3728,-10.2985,-1.7601,-0.4988,-0.2656,0.3813,460369,2021-05-19 16:38:34:785
-0.3793,-10.6807,-6.2016,-1.2056,-9.4861,2.175,6.6772,-2.0406,-2.6804,-1.2408,-0.11,-0.1167,460868,2021-05-19 16:38:35:284
-15.9864,-10.2042,-3.0129,-0.7987,-9.2672,-3.1068,0.3848,3.3478,-8.4274,0.5495,-0.8288,-0.4227,461369,2021-05-19 16:38:35:785
4.5766,-10.8458,2.8002,-0.5942,-9.6986,1.3245,3.1162,-1.9098,-2.4529,0.3318,2.3495,-0.2923,461871,2021-05-19 16:38:36:287
-11.8854,-10.3693,-9.8432,-1.36,-9.1113,-3.3622,-3.9589,-11.3537,-8.5824,0.5142,0.3173,-0.5546,462368,2021-05-19 16:38:36:784
2.2756,-14.863,0.2862,-1.253,-9.334,2.7344,1.0208,-2.5369,-9.6912,0.7765,1.1624,0.1961,462868,2021-05-19 16:38:37:284
-4.6552,-15.9523,-4.4874,-0.6909,-9.3125,-2.9951,0.8067,7.4509,-0.9864,0.638,-1.2559,0.6141,463369,2021-05-19 16:38:37:785
3.6069,-11.7529,-3.0942,-0.7951,-9.4913,2.3354,6.8229,-3.5766,-2.7421,-0.0415,1.1702,-0.9978,463868,2021-05-19 16:38:38:284
-15.9266,-20.822,-1.0304,-1.4232,-9.2643,-2.8842,-3.1249,3.9514,-10.7168,0.1121,-0.9086,-0.5023,464368,2021-05-19 16:38:38:784
4.349,-10.3908,-3.9655,-1.224,-9.3567,2.669,-1.1062,-1.0539,-8.8634,0.8143,1.8877,0.2321,464868,2021-05-19 16:38:39:284
-7.4515,-8.2098,-0.8055,-0.9965,-9.1666,-3.3394,-4.6228,-14.5575,-5.8122,0.5383,-1.2649,0.8372,465368,2021-05-19 16:38:39:784
5.5723,-15.1334,0.1738,-1.2145,-9.3615,2.6565,4.7553,-2.8209,-3.4615,0.221,0.9442,-0.5942,465868,2021-05-19 16:38:40:284
-6.003,-11.3533,-13.7575,-1.3616,-9.1904,-3.139,-0.9662,6.5505,-3.0071,0.1226,-1.1194,-0.162,466368,2021-05-19 16:38:40:784
7.0567,-13.1297,2.3907,-1.2264,-9.2964,2.8711,-0.1939,1.1302,-0.8144,1.5028,-0.2312,0.8193,466868,2021-05-19 16:38:41:284
-6.367,-9.3015,-11.5071,-0.8361,-8.9765,-3.8593,-0.4877,8.5345,8.5398,1.2535,-0.2712,0.053,467368,2021-05-19 16:38:41:784
-0.2859,-12.816,-4.9615,-1.5206,-9.2754,2.7972,0.8409,-1.6387,-7.1773,0.4331,2.1036,-0.516,467868,2021-05-19 16:38:42:284
-11.6818,-26.3498,-13.9059,-0.5291,-9.2164,-3.309,-0.1354,11.0775,5.2081,-0.5198,-2.7537,-0.483,468368,2021-05-19 16:38:42:784
-1.3609,-11.461,-7.3795,-0.9674,-9.4168,2.5608,2.8345,1.5564,-4.6772,1.9297,0.452,0.4597,468868,2021-05-19 16:38:43:284
-11.4616,-12.6197,-15.0694,-0.7501,-9.1375,-3.4805,-0.276,5.1294,-5.524,0.6156,-0.378,-0.5864,469369,2021-05-19 16:38:43:785
-0.8103,-10.6205,-3.743,-1.2641,-9.3203,2.7757,0.6193,2.0696,-1.9415,0.8413,1.293,0.1669,469868,2021-05-19 16:38:44:284
-0.3625,0.9117,3.1304,-0.7173,-9.0354,-3.7441,-1.0889,9.5396,8.6868,0.6516,-1.0522,0.524,470368,2021-05-19 16:38:44:784
4.8948,-13.4674,-0.1448,-1.3544,-9.3253,2.7155,2.1507,-2.0815,-7.9559,1.6545,1.3561,0.1362,470868,2021-05-19 16:38:45:284
4.6436,-37.3938,-14.5929,-0.3684,-9.3142,-3.0465,0.4229,10.9418,2.1365,0.9106,0.2095,-0.3595,471368,2021-05-19 16:38:45:784
2.0578,-13.5248,-2.4646,-1.2602,-9.3615,2.6353,1.2536,1.5382,-2.1896,0.8761,1.4225,0.1619,471869,2021-05-19 16:38:46:285
0.8082,-2.1024,-7.8344,-0.7351,-8.9791,-3.8737,-0.7704,8.4463,9.8054,-0.2074,-3.4192,-1.1267,472369,2021-05-19 16:38:46:785
-1.6579,-11.3127,-4.727,-1.1977,-9.3179,2.8131,-0.6682,0.016,-6.592,2.0502,2.5908,-0.3908,472868,2021-05-19 16:38:47:284
-10.1665,-27.5614,-15.6966,-0.5924,-9.1094,-3.5831,-0.2651,10.7896,6.8708,0.1081,-0.3787,-0.1406,473369,2021-05-19 16:38:47:785
-2.5771,-10.1803,-0.7026,-0.9882,-9.5782,1.8581,1.8509,2.5537,-8.2229,1.3509,0.8054,0.2879,473869,2021-05-19 16:38:48:285
-0.1519,-1.3364,2.3429,-0.4828,-9.2061,-3.3443,0.7998,6.6541,3.8951,-0.3777,-3.3322,-1.4776,474369,2021-05-19 16:38:48:785
-0.8031,-11.6166,-9.2782,-0.8432,-9.3931,2.6888,1.834,1.6959,-4.0602,2.1551,2.4031,-0.5655,474868,2021-05-19 16:38:49:284
-0.1496,-0.8049,-2.3327,-0.705,-8.9198,-4.0138,-0.0427,7.4237,9.5111,-0.1567,-2.2921,-0.4777,475368,2021-05-19 16:38:49:784
0.0036,-7.1994,0.6215,-0.9524,-9.6856,1.2051,2.1728,1.2915,-1.3073,2.1227,0.4204,0.3056,475867,2021-05-19 16:38:50:283
0.7842,-1.4225,-2.4311,-0.2954,-9.2042,-3.3714,-1.0536,11.6208,8.1266,-1.1768,-1.8211,-1.4949,476368,2021-05-19 16:38:50:784
-4.2817,-8.3797,3.3676,-1.0126,-9.3637,2.7323,2.3714,2.0168,-4.0681,2.1337,3.248,-0.6649,476868,2021-05-19 16:38:51:284
-0.8318,2.0608,3.7792,-0.0612,-8.9993,-3.8961,-2.4346,8.494,8.0407,0.5521,-1.4628,-0.3879,477369,2021-05-19 16:38:51:785
6.3362,-14.2382,1.8592,-1.4782,-9.3344,2.618,-2.2576,-1.3206,-7.7676,1.0641,-0.0761,0.6675,477868,2021-05-19 16:38:52:284
0.248,0.1983,1.0406,-0.1458,-9.2738,-3.1853,-0.1814,9.661,3.0908,-0.0124,-3.5052,-1.6449,478368,2021-05-19 16:38:52:784
-3.329,-11.284,-11.0306,-0.9574,-9.4636,2.3863,2.3796,0.9936,-5.0942,1.8579,3.1382,-0.4059,478868,2021-05-19 16:38:53:284
-1.7154,1.6346,2.9677,-0.2413,-9.0652,-3.7329,-0.2627,5.9645,8.591,-0.093,-1.9339,-0.4775,479368,2021-05-19 16:38:53:784
2.7592,-13.0364,-2.4048,-1.1126,-9.2971,2.915,-0.6753,2.1805,-1.2627,1.6876,-0.246,0.6281,479868,2021-05-19 16:38:54:284
1.0092,-3.4481,-11.9548,-0.7667,-9.1074,-3.5549,-0.0894,10.0114,8.3641,-0.3528,-2.7775,-1.8026,480368,2021-05-19 16:38:54:784
-0.2333,-11.7939,-10.0705,-1.2674,-9.6042,1.524,2.5887,2.9774,-7.9912,2.0381,4.1202,-0.5255,480868,2021-05-19 16:38:55:284
-0.6428,2.2837,3.0012,-0.5248,-9.246,-3.2258,0.3085,10.6202,4.1317,-0.4366,-3.018,-0.7695,481370,2021-05-19 16:38:55:786
-2.4526,-10.8099,-1.902,-1.0975,-9.4232,2.4836,2.5146,1.2297,-4.6786,1.4425,0.6047,0.4255,481868,2021-05-19 16:38:56:284
-0.1735,0.1433,-0.2453,-0.9614,-9.0371,-3.6846,1.1322,5.1845,8.6782,-1.7069,-1.7725,-1.4202,482369,2021-05-19 16:38:56:785
0.5734,-7.2138,-1.3801,-1.0829,-9.6803,1.1357,1.9276,1.5132,-0.0377,2.272,0.0078,-0.3514,482868,2021-05-19 16:38:57:284
-2.6704,-1.2072,5.831,-0.8236,-8.8435,-4.1574,-1.2653,7.4699,10.1531,-0.9109,-3.0351,-1.2758,483369,2021-05-19 16:38:57:785
0.9685,-5.6172,-5.0859,-0.9896,-9.7304,0.7138,2.2868,-3.3395,2.5391,2.017,0.8376,-0.2384,483869,2021-05-19 16:38:58:285
3.6212,-9.5073,1.555,-0.6636,-9.0752,-3.6566,-2.3424,-2.4472,4.4203,-2.5171,-1.8849,0.3453,484367,2021-05-19 16:38:58:783
0.0012,-6.3162,5.1344,-1.0565,-9.6185,1.5933,0.4988,3.6726,-4.5406,1.5166,0.7442,1.0395,484868,2021-05-19 16:38:59:284
-0.6428,-11.0731,-1.9714,-0.5944,-8.9089,-4.0557,0.1303,1.2113,5.9522,-2.17,-1.3535,-1.1892,485368,2021-05-19 16:38:59:784
2.0267,-8.0949,-8.0836,-1.162,-9.7371,0.0945,-1.9938,-4.0637,3.9291,2.3212,-1.4567,-0.3864,485868,2021-05-19 16:39:00:284
-0.2309,2.621,4.2867,-0.9355,-9.1644,-3.363,-5.0176,-5.7725,5.9215,-3.0358,-1.7609,0.8471,486369,2021-05-19 16:39:00:785
0.8991,-7.0822,-7.9445,-0.6875,-9.6713,1.4709,1.204,2.8229,0.4778,1.2449,0.8517,1.317,486871,2021-05-19 16:39:01:287
