ACCELEROMETER X (m/s²),ACCELEROMETER Y (m/s²),ACCELEROMETER Z (m/s²),GRAVITY X (m/s²),GRAVITY Y (m/s²),GRAVITY Z (m/s²),LINEAR ACCELERATION X (m/s²),LINEAR ACCELERATION Y (m/s²),LINEAR ACCELERATION Z (m/s²),GYROSCOPE X (rad/s),GYROSCOPE Y (rad/s),GYROSCOPE Z (rad/s),Time since start in ms ,YYYY-MO-DD HH-MI-SS_SSS
1.6543,-1.7183,10.314,-0.9243,0.0837,9.7626,-1.265,-0.5804,-2.3475,1.6047,-3.0565,0.0794,16,2021-05-19 17:34:25:292
2.9031,-3.88,0.291,9.6904,-1.3627,-0.6395,-3.6426,-0.2799,2.269,1.2976,-6.0865,2.2406,516,2021-05-19 17:34:25:792
-0.3218,-6.8955,-0.7074,6.9068,-6.5984,-2.2199,-0.2951,-0.3503,5.6959,1.4535,-1.4587,0.0589,1016,2021-05-19 17:34:26:292
5.8502,-10.3286,0.2695,5.3605,-8.1593,-0.9279,0.9364,-0.6541,0.1581,1.1988,-1.86,-0.6754,1516,2021-05-19 17:34:26:792
4.5742,-10.4818,-3.6832,4.1918,-8.0531,-3.7077,1.157,-5.9874,0.3035,-2.1538,-1.5172,0.7584,2016,2021-05-19 17:34:27:292
5.2493,2.6689,0.4131,3.3779,-8.6092,-3.262,-0.0873,6.6305,0.7098,0.8318,1.0534,-0.077,2517,2021-05-19 17:34:27:793
8.546,-6.4932,-3.6473,2.9769,-9.0386,-2.369,1.2944,2.8952,-1.3292,-0.2359,0.3212,0.1968,3016,2021-05-19 17:34:28:292
5.4646,-9.7947,-1.902,1.8983,-8.8636,-3.7421,-1.163,3.4304,-0.3553,0.7226,0.2721,0.2726,3517,2021-05-19 17:34:28:793
0.2599,-8.0638,-1.3848,3.0043,-9.1269,-1.9609,-1.3763,1.9535,-0.5796,0.7119,0.243,0.0064,4017,2021-05-19 17:34:29:293
-1.028,-5.6148,-4.3343,1.7068,-9.0816,-3.2836,0,0,0,0.3369,-0.969,0.0686,4516,2021-05-19 17:34:29:792
16.911,-14.9683,-13.9442,2.1701,-9.0904,-2.9709,1.4019,-4.7732,8.7807,-1.2025,-0.3428,0.0644,5017,2021-05-19 17:34:30:293
0.9422,-18.6434,-5.426,2.0761,-8.1923,-4.9745,0.8177,-4.8431,-3.3325,-1.7634,0.2944,0.4861,5516,2021-05-19 17:34:30:792
-3.8506,-9.3637,-1.4279,2.1797,-9.1663,-2.72,1.1289,-1.8112,-6.4104,0.1593,1.5525,-0.1745,6016,2021-05-19 17:34:31:292
2.374,-9.2824,-0.8031,2.7238,-9.4208,-0.0128,1.0261,0.239,-0.2196,0.3751,1.216,0.0834,6516,2021-05-19 17:34:31:792
0.4513,-6.4023,-0.9395,2.6329,-8.2983,-4.5139,0.6402,-1.796,2.9394,-0.9557,-1.0233,-0.133,7016,2021-05-19 17:34:32:292
7.4901,-11.0827,8.2226,2.4481,-9.4737,-0.6532,0.7528,-3.9782,5.2177,-0.1909,2.2154,-0.3491,7517,2021-05-19 17:34:32:793
-0.0873,-7.4246,-2.1078,2.5389,-8.7168,-3.707,-2.7975,-4.0465,2.8621,-0.439,0.2897,-0.0489,8016,2021-05-19 17:34:33:292
-1.2365,-5.5187,0.0685,2.3255,-9.5151,-0.4754,-1.3607,-1.9879,1.9877,0.305,1.1134,0.3775,8516,2021-05-19 17:34:33:792
0.4011,-6.4262,-1.8757,2.9049,-9.2843,-1.2381,0.7341,1.4533,0.1577,-0.5765,0.5539,-0.0921,9016,2021-05-19 17:34:34:292
-1.8494,-3.1295,-3.2928,2.3954,-7.9847,-5.1649,-1.7064,-0.1039,2.4813,0.2865,-1.0653,0.3897,9516,2021-05-19 17:34:34:792
4.1599,-19.9241,-4.2697,2.9475,-8.9454,-2.7317,1.4162,-4.7805,-1.1667,0.742,-0.7097,6.00E-04,10017,2021-05-19 17:34:35:293
2.2205,-11.2576,-3.5324,2.5363,-7.9302,-5.1817,-0.365,-2.9572,1.3417,-0.0121,-0.2391,0.1888,10516,2021-05-19 17:34:35:792
6.7959,-16.369,-2.4,3.1172,-8.6946,-3.295,11.0994,-3.0721,2.7732,-1.2383,-0.3311,-0.4833,11016,2021-05-19 17:34:36:292
-1.823,-7.1324,-3.8124,2.4738,-7.7454,-5.4827,-2.8361,-2.9432,2.2195,0.1561,-0.3074,-0.3086,11516,2021-05-19 17:34:36:792
1.5263,-9.9646,10.4946,3.8797,-8.7418,-2.1676,6.2228,-4.7926,-0.9328,-1.8599,3.5759,-0.6826,12016,2021-05-19 17:34:37:292
1.1671,-12.457,1.4785,3.2632,-8.4954,-3.6537,-2.7161,-3.2112,-2.4693,-1.6807,0.5125,-0.0932,12516,2021-05-19 17:34:37:792
1.2583,-11.959,-5.814,2.8068,-9.1427,-2.1688,4.8739,-1.8534,-7.3708,0.4838,1.1606,-0.3683,13017,2021-05-19 17:34:38:293
3.3984,-8.9016,-1.9331,2.8062,-9.3752,-0.6333,0.5376,0.3538,0.1405,-0.3744,0.0837,-0.1116,13517,2021-05-19 17:34:38:793
-3.542,-5.6554,-5.0572,2.6609,-7.8553,-5.233,-4.5175,1.145,1.2376,-0.3639,-1.0731,0.4447,14017,2021-05-19 17:34:39:293
1.5909,-2.0785,-3.5827,1.3775,-6.7208,-7.0074,0,0,0,-1.6639,0.8155,-0.7585,14517,2021-05-19 17:34:39:793
1.5909,-2.0785,-3.5827,1.3775,-6.7208,-7.0074,0,0,0,-1.6639,0.8155,-0.7585,14518,2021-05-19 17:34:39:794
1.5909,-2.0785,-3.5827,1.3775,-6.7208,-7.0074,0,0,0,-1.6639,0.8155,-0.7585,14519,2021-05-19 17:34:39:795
1.5909,-2.0785,-3.5827,1.3775,-6.7208,-7.0074,0,0,0,-1.6639,0.8155,-0.7585,14810,2021-05-19 17:34:40:086
1.5909,-2.0785,-3.5827,1.3775,-6.7208,-7.0074,0,0,0,-1.6639,0.8155,-0.7585,14811,2021-05-19 17:34:40:087
1.5909,-2.0785,-3.5827,1.3775,-6.7208,-7.0074,0,0,0,-1.6639,0.8155,-0.7585,14820,2021-05-19 17:34:40:096
-0.317,-14.1114,12.9894,-0.3492,-6.1995,-7.5904,0,0,0,-1.8448,-0.336,-0.6663,15319,2021-05-19 17:34:40:595
-0.317,-14.1114,12.9894,-0.3492,-6.1995,-7.5904,0,0,0,-1.8448,-0.336,-0.6663,15320,2021-05-19 17:34:40:596
-0.317,-14.1114,12.9894,-0.3492,-6.1995,-7.5904,0,0,0,-1.8448,-0.336,-0.6663,15320,2021-05-19 17:34:40:596
-0.317,-14.1114,12.9894,-0.3492,-6.1995,-7.5904,0,0,0,-1.8448,-0.336,-0.6663,15320,2021-05-19 17:34:40:596
-0.317,-14.1114,12.9894,-0.3492,-6.1995,-7.5904,0,0,0,-1.8448,-0.336,-0.6663,15321,2021-05-19 17:34:40:597
-0.317,-14.1114,12.9894,-0.3492,-6.1995,-7.5904,0,0,0,-1.8448,-0.336,-0.6663,15321,2021-05-19 17:34:40:597
-0.317,-14.1114,12.9894,-0.3492,-6.1995,-7.5904,0,0,0,-1.8448,-0.336,-0.6663,15321,2021-05-19 17:34:40:597
-0.317,-14.1114,12.9894,-0.3492,-6.1995,-7.5904,0,0,0,-1.8448,-0.336,-0.6663,15321,2021-05-19 17:34:40:597
-0.317,-14.1114,12.9894,-0.3492,-6.1995,-7.5904,0,0,0,-1.8448,-0.336,-0.6663,15321,2021-05-19 17:34:40:597
-0.317,-14.1114,12.9894,-0.3492,-6.1995,-7.5904,0,0,0,-1.8448,-0.336,-0.6663,15322,2021-05-19 17:34:40:598
4.5479,-8.825,-3.2521,3.6586,-9.0906,0.3831,0,0,0,-1.8448,-0.336,-0.6663,15699,2021-05-19 17:34:40:975
4.5479,-8.825,-3.2521,3.6586,-9.0906,0.3831,0,0,0,-1.8448,-0.336,-0.6663,15700,2021-05-19 17:34:40:976
4.5479,-8.825,-3.2521,3.6586,-9.0906,0.3831,0,0,0,-1.8448,-0.336,-0.6663,15700,2021-05-19 17:34:40:976
4.5479,-8.825,-3.2521,3.6586,-9.0906,0.3831,0,0,0,-1.8448,-0.336,-0.6663,15700,2021-05-19 17:34:40:976
4.5479,-8.825,-3.2521,3.6586,-9.0906,0.3831,0,0,0,-1.8448,-0.336,-0.6663,15700,2021-05-19 17:34:40:976
4.5479,-8.825,-3.2521,3.6586,-9.0906,0.3831,0,0,0,-1.8448,-0.336,-0.6663,15700,2021-05-19 17:34:40:976
4.5479,-8.825,-3.2521,3.6586,-9.0906,0.3831,0,0,0,-1.8448,-0.336,-0.6663,15700,2021-05-19 17:34:40:976
5.7449,-8.514,-3.0846,4.2866,-8.3587,-2.8155,0,0,0,-0.0606,0.8819,0.1054,16184,2021-05-19 17:34:41:460
2.5869,-10.587,-1.957,5.3843,-7.5304,-3.2363,3.7028,-1.4932,-6.988,1.2846,1.6801,-0.668,16488,2021-05-19 17:34:41:764
2.8573,-9.1819,-1.3466,3.3325,-9.2161,-0.3584,1.0373,-0.2892,0.1348,0.2584,0.6119,0.0982,16988,2021-05-19 17:34:42:264
5.5005,-9.5746,1.0286,2.4029,-9.5075,0.0536,0,0,0,-0.4555,-0.1933,-0.3777,17488,2021-05-19 17:34:42:764
3.9972,-12.1983,-5.2418,2.596,-8.4197,-4.3059,-4.2992,-5.8552,-6.1296,0.3636,-0.682,0.0852,17987,2021-05-19 17:34:43:263
3.5471,-6.5004,-3.7119,3.5445,-8.2318,-3.9805,0.1382,-1.1541,0.0284,-0.6267,0.0973,0.418,18488,2021-05-19 17:34:43:764
5.3186,-12.1289,-14.7559,3.9081,-8.9218,-1.1399,2.9669,-1.0731,-5.0828,1.9678,1.443,-0.5466,18988,2021-05-19 17:34:44:264
6.3147,-7.5802,-1.5117,3.0639,-9.2668,0.9538,2.5503,0.9769,-2.1296,-0.3948,0.7471,0.1817,19488,2021-05-19 17:34:44:764
-0.3482,-6.5722,-3.932,2.0244,-8.9057,-3.5721,-1.0654,2.5624,0.7316,0.2442,-0.4655,1.0542,19988,2021-05-19 17:34:45:264
3.1974,-9.2465,-1.2338,2.6582,-9.428,-0.4657,1.019,0.5465,0.076,0.1393,0.6301,-0.1471,20488,2021-05-19 17:34:45:764
6.1205,-11.5424,-6.9416,2.1659,-9.07,-3.0356,4.3823,3.6584,1.5723,-0.9183,-1.0342,0.3833,20988,2021-05-19 17:34:46:264
4.7345,-4.7791,-0.384,1.1873,-9.4112,-2.4879,1.1695,2.5662,-0.8431,1.2189,1.1492,-0.3804,21487,2021-05-19 17:34:46:763
4.2221,-7.1587,-3.9966,2.7156,-9.0566,-2.6027,-3.6054,1.3613,-1.4298,0.0534,0.3332,0.1145,21988,2021-05-19 17:34:47:264
-0.1663,-5.7631,-4.1668,2.2044,-8.797,-3.7314,-1.342,1.452,-1.4597,0.5921,-0.1217,0.186,22488,2021-05-19 17:34:47:764
4.7895,-10.0364,-3.6305,3.4087,-8.9263,-2.2073,1.5989,-5.8863,1.967,1.2539,0.3809,0.0928,22988,2021-05-19 17:34:48:264
0.734,-7.2401,-3.2833,3.4142,-7.9158,-4.6748,5.7228,-10.9141,-3.9548,-1.4812,-0.8498,-1.0487,23488,2021-05-19 17:34:48:764
8.6225,-17.8125,-5.6677,3.7947,-8.7283,-2.3637,-0.8061,-13.1727,-3.6919,0.1272,0.7254,-0.1727,23988,2021-05-19 17:34:49:264
5.3952,-7.6448,-1.8637,2.8621,-9.3631,0.5578,1.0881,1.2212,-3.123,0.2943,0.6309,0.4238,24697,2021-05-19 17:34:49:973
5.3952,-7.6448,-1.8637,2.8621,-9.3631,0.5578,1.0881,1.2212,-3.123,0.2943,0.6309,0.4238,24698,2021-05-19 17:34:49:974
3.7002,-9.2106,-3.2665,6.3478,-7.4683,0.3167,0,0,0,-0.4482,0.5453,-0.0983,25133,2021-05-19 17:34:50:409
3.7002,-9.2106,-3.2665,6.3478,-7.4683,0.3167,0,0,0,-0.4482,0.5453,-0.0983,25134,2021-05-19 17:34:50:410
3.7002,-9.2106,-3.2665,6.3478,-7.4683,0.3167,0,0,0,-0.4482,0.5453,-0.0983,25134,2021-05-19 17:34:50:410
3.7002,-9.2106,-3.2665,6.3478,-7.4683,0.3167,0,0,0,-0.4482,0.5453,-0.0983,25135,2021-05-19 17:34:50:411
3.7002,-9.2106,-3.2665,6.3478,-7.4683,0.3167,0,0,0,-0.4482,0.5453,-0.0983,25135,2021-05-19 17:34:50:411
-2.5579,-7.9011,0.9975,2.424,-9.3363,1.7687,0,0,0,0.9667,0.3987,0.1745,25571,2021-05-19 17:34:50:847
-2.5579,-7.9011,0.9975,2.424,-9.3363,1.7687,0,0,0,0.9667,0.3987,0.1745,25572,2021-05-19 17:34:50:848
-2.5579,-7.9011,0.9975,2.424,-9.3363,1.7687,0,0,0,0.9667,0.3987,0.1745,25572,2021-05-19 17:34:50:848
-2.5579,-7.9011,0.9975,2.424,-9.3363,1.7687,0,0,0,0.9667,0.3987,0.1745,25572,2021-05-19 17:34:50:848
-2.5579,-7.9011,0.9975,2.424,-9.3363,1.7687,0,0,0,0.9667,0.3987,0.1745,25573,2021-05-19 17:34:50:849
-2.5579,-7.9011,0.9975,2.424,-9.3363,1.7687,0,0,0,0.9667,0.3987,0.1745,25573,2021-05-19 17:34:50:849
-2.5579,-7.9011,0.9975,2.424,-9.3363,1.7687,0,0,0,0.9667,0.3987,0.1745,25573,2021-05-19 17:34:50:849
-2.5579,-7.9011,0.9975,2.424,-9.3363,1.7687,0,0,0,0.9667,0.3987,0.1745,25573,2021-05-19 17:34:50:849
3.1352,-8.9136,-0.9754,4.0688,-8.9098,-0.481,0.2869,0.038,-0.5956,0.0689,0.1413,0.0447,26066,2021-05-19 17:34:51:342
0.9565,-16.6705,-7.8607,4.0245,-7.9064,-4.1789,6.2092,-11.2656,-2.6709,-1.1403,0.1926,-0.4383,26556,2021-05-19 17:34:51:832
6.1636,-0.125,-2.359,2.4828,-8.3853,-4.4377,2.7663,-10.9177,-3.5557,-1.8486,0.5151,-0.0082,27035,2021-05-19 17:34:52:311
7.0591,-10.4459,-9.6876,3.3224,-7.3643,-5.5586,0,0,0,-1.74,0.1087,0.3094,27535,2021-05-19 17:34:52:811
0.5877,-12.1265,-2.7087,2.109,-9.2533,-2.4698,2.6499,2.3651,-2.8437,0.6321,1.5235,1.3458,28035,2021-05-19 17:34:53:311
3.7552,-8.8442,-1.2843,2.6251,-9.4472,-0.1703,2.1175,1.232,-2.3788,-0.1301,0.5424,0.0298,28535,2021-05-19 17:34:53:811
0.4442,-6.4669,-2.3785,2.4503,-8.2469,-4.707,-1.0828,2.0799,2.0302,-0.3135,-0.4881,0.6689,29035,2021-05-19 17:34:54:311
9.3,-19.352,-5.5265,3.2524,-9.0136,-2.0848,0.4078,0.7212,-0.7146,-0.2598,1.1058,-0.1248,29535,2021-05-19 17:34:54:811
1.9597,-12.9407,-4.0086,3.7287,-7.7032,-4.7883,-1.3986,-3.277,1.4515,-0.3758,-0.2359,-0.884,30035,2021-05-19 17:34:55:311
4.89,-4.4438,5.9889,3.7296,-8.5893,-2.9127,-4.8527,0.0459,-3.4527,-1.3639,-0.2784,-0.1895,30535,2021-05-19 17:34:55:811
7.483,-10.2497,-8.6557,3.1474,-8.1835,-4.3925,1.1233,4.0048,3.7698,-2.4634,-1.1641,-0.1552,31036,2021-05-19 17:34:56:312
-2.0671,-12.306,-4.509,3.6638,-9.0184,-1.1895,-4.9133,-1.279,-8.5994,-2.1606,-0.2837,0.4213,31536,2021-05-19 17:34:56:812
5.1153,-6.3927,-2.5819,2.8407,-8.6193,-3.7159,3.6828,2.3668,2.4816,-1.224,0.4693,-0.0434,32035,2021-05-19 17:34:57:311
5.0312,-7.0008,-2.4909,3.5834,-8.5386,-3.2282,0.2035,2.5437,-0.6339,1.0763,0.6651,1.217,32535,2021-05-19 17:34:57:811
3.9826,-8.7652,-0.1424,2.3673,-9.5148,0.1893,-0.3511,0.9982,-0.2566,0.0594,0.7907,0.1121,33036,2021-05-19 17:34:58:312
1.4306,-9.8258,-1.6074,3.4291,-8.5893,-3.2614,-0.6405,-2.1995,5.4462,-1.1638,-0.4499,-0.1513,33535,2021-05-19 17:34:58:811
-1.1168,-9.3326,3.5136,3.0682,-9.2139,-1.3639,-6.7014,-4.3922,0.8117,-0.1784,0.3955,0.8269,34035,2021-05-19 17:34:59:311
-1.9738,-14.3674,-0.839,2.8281,-9.3886,-0.1619,2.4517,0.8079,-3.2929,-1.4034,0.6305,-0.2883,34535,2021-05-19 17:34:59:811
6.3864,-7.9083,-8.1099,3.5183,-8.9835,-1.7573,4.5266,-0.189,-5.3131,0.405,1.0409,-0.6707,35035,2021-05-19 17:35:00:311
5.12,-9.0503,-0.9706,3.0551,-9.3137,-0.3025,0.4396,0.1836,0.4104,0.0037,0.3193,0.0831,35535,2021-05-19 17:35:00:811
5.2277,-16.0768,-7.765,2.7064,-8.657,-3.7286,2.3396,-0.1006,0.4226,-0.8949,-0.877,-0.0681,36035,2021-05-19 17:35:01:311
1.7297,-7.4414,-1.4112,3.3364,-9.0407,-1.8178,-1.2225,1.0963,-3.6264,1.7649,0.41,-0.2109,36535,2021-05-19 17:35:01:811
0.3102,-4.791,-2.4024,3.2289,-8.8445,-2.742,-2.5985,3.6217,-0.0902,-1.1204,0.1591,0.2677,37035,2021-05-19 17:35:02:311
0.8704,-2.8089,1.8568,3.0592,-8.7764,-3.1283,-5.4552,7.8072,2.0127,0.7604,0.9357,0.3948,37535,2021-05-19 17:35:02:811
4.7154,-5.5499,-2.6369,3.3724,-9.0618,-1.6376,0.3809,2.37,0.2874,0.2132,0.6559,0.1335,38035,2021-05-19 17:35:03:311
0.5471,-3.2922,1.3469,2.5367,-8.8091,-3.4835,-3.8755,6.2335,1.5865,0.4645,0.8378,1.7536,38535,2021-05-19 17:35:03:811
6.5085,-7.9107,-2.3638,3.9111,-8.9645,-0.7148,2.9295,-1.177,-0.9967,0.786,1.7928,0.662,39297,2021-05-19 17:35:04:573
6.5085,-7.9107,-2.3638,3.9111,-8.9645,-0.7148,2.9295,-1.177,-0.9967,0.786,1.7928,0.662,39298,2021-05-19 17:35:04:574
6.5085,-7.9107,-2.3638,3.9111,-8.9645,-0.7148,2.9295,-1.177,-0.9967,0.786,1.7928,0.662,39298,2021-05-19 17:35:04:574
6.5085,-7.9107,-2.3638,3.9111,-8.9645,-0.7148,2.9295,-1.177,-0.9967,0.786,1.7928,0.662,39298,2021-05-19 17:35:04:574
6.5085,-7.9107,-2.3638,3.9111,-8.9645,-0.7148,2.9295,-1.177,-0.9967,0.786,1.7928,0.662,39298,2021-05-19 17:35:04:574
6.5085,-7.9107,-2.3638,3.9111,-8.9645,-0.7148,2.9295,-1.177,-0.9967,0.786,1.7928,0.662,39298,2021-05-19 17:35:04:574
6.5085,-7.9107,-2.3638,3.9111,-8.9645,-0.7148,2.9295,-1.177,-0.9967,0.786,1.7928,0.662,39298,2021-05-19 17:35:04:574
6.5085,-7.9107,-2.3638,3.9111,-8.9645,-0.7148,2.9295,-1.177,-0.9967,0.786,1.7928,0.662,39298,2021-05-19 17:35:04:574
8.3901,-9.2895,-2.2107,5.4571,-8.103,0.8554,0,0,0,-0.2674,-0.7306,1.8254,39329,2021-05-19 17:35:04:605
-1.6914,-8.6551,-8.5238,5.2937,-7.8363,-2.5962,-0.0142,-0.3716,0.7411,0.3905,0.9824,-0.4335,39872,2021-05-19 17:35:05:148
3.8533,-7.1468,-2.6656,3.6215,-9.0656,-0.9333,1.6478,2.275,-3.2704,-0.7642,-0.1393,0.0171,40330,2021-05-19 17:35:05:606
-3.0631,-5.1646,-0.2405,1.7154,-9.2546,-2.7532,-3.0911,5.6165,1.1143,1.067,-0.9375,-0.3256,40829,2021-05-19 17:35:06:105
1.7946,-13.8885,0.4971,3.2836,-9.1475,-1.3086,-2.726,0.4427,-1.0269,1.5767,0.3152,0.4655,41330,2021-05-19 17:35:06:606
-2.6512,-4.736,-0.827,3.2662,-8.6885,-3.1643,0.4351,0.9846,0.1444,0.4189,0.4513,-0.6315,41829,2021-05-19 17:35:07:105
2.0028,-8.2074,-2.7494,3.9575,-8.7849,-1.8259,2.2237,-3.9802,2.4697,1.1313,-0.3045,0.5288,42329,2021-05-19 17:35:07:605
-1.8494,-15.0473,-5.5983,4.073,-7.989,-3.9695,5.2495,-9.8078,-3.6303,-0.1145,0.0576,0.1452,42829,2021-05-19 17:35:08:105
2.5917,-20.9489,-3.4866,1.5706,-8.6782,-4.2887,-6.3951,0.7618,7.0458,-0.263,1.1638,-3.00E-04,43330,2021-05-19 17:35:08:606
4.1121,-8.7628,-0.1639,3.5853,-9.1256,-0.1995,-0.4376,0.2867,-0.9889,0.3879,0.4558,-0.0794,43829,2021-05-19 17:35:09:105
1.5,-9.1747,-1.7151,3.365,-8.3957,-3.7895,-2.6176,-0.0893,2.1493,-0.5884,-0.1846,-0.4021,44332,2021-05-19 17:35:09:608
7.3657,-9.9048,2.2376,3.2339,-9.2026,-1.0121,-5.7187,-0.8753,0.9501,-0.1946,0.3442,0.5849,44829,2021-05-19 17:35:10:105
1.8233,-15.5237,-3.7717,3.7139,-8.6236,-2.8302,-2.627,-0.5618,0.5477,-2.3655,0.8268,0.2141,45330,2021-05-19 17:35:10:606
-0.2764,-13.8646,3.6212,3.5436,-9.0282,-1.4505,0.6309,-1.9954,-2.1651,-0.0866,1.6131,-0.1382,45830,2021-05-19 17:35:11:106
3.1615,-7.8509,-3.786,3.4466,-9.0523,-1.532,-0.7399,1.6827,-2.308,-0.1984,0.1532,-0.0744,46330,2021-05-19 17:35:11:606
3.4513,-7.9107,2.3716,-0.4731,-9.7279,-1.1465,0,0,0,-1.926,0.1535,-1.3478,47056,2021-05-19 17:35:12:332
3.4513,-7.9107,2.3716,-0.4731,-9.7279,-1.1465,0,0,0,-1.926,0.1535,-1.3478,47057,2021-05-19 17:35:12:333
3.4513,-7.9107,2.3716,-0.4731,-9.7279,-1.1465,0,0,0,-1.926,0.1535,-1.3478,47057,2021-05-19 17:35:12:333
3.4513,-7.9107,2.3716,-0.4731,-9.7279,-1.1465,0,0,0,-1.926,0.1535,-1.3478,47057,2021-05-19 17:35:12:333
3.4513,-7.9107,2.3716,-0.4731,-9.7279,-1.1465,0,0,0,-1.926,0.1535,-1.3478,47057,2021-05-19 17:35:12:333
3.4513,-7.9107,2.3716,-0.4731,-9.7279,-1.1465,0,0,0,-1.926,0.1535,-1.3478,47058,2021-05-19 17:35:12:334
3.4513,-7.9107,2.3716,-0.4731,-9.7279,-1.1465,0,0,0,-1.926,0.1535,-1.3478,47058,2021-05-19 17:35:12:334
3.4513,-7.9107,2.3716,-0.4731,-9.7279,-1.1465,0,0,0,-1.926,0.1535,-1.3478,47058,2021-05-19 17:35:12:334
3.4513,-7.9107,2.3716,-0.4731,-9.7279,-1.1465,0,0,0,-1.926,0.1535,-1.3478,47058,2021-05-19 17:35:12:334
3.4513,-7.9107,2.3716,-0.4731,-9.7279,-1.1465,0,0,0,-1.926,0.1535,-1.3478,47058,2021-05-19 17:35:12:334
3.4513,-7.9107,2.3716,-0.4731,-9.7279,-1.1465,0,0,0,-1.926,0.1535,-1.3478,47059,2021-05-19 17:35:12:335
3.4513,-7.9107,2.3716,-0.4731,-9.7279,-1.1465,0,0,0,-1.926,0.1535,-1.3478,47059,2021-05-19 17:35:12:335
3.4513,-7.9107,2.3716,-0.4731,-9.7279,-1.1465,0,0,0,-1.926,0.1535,-1.3478,47059,2021-05-19 17:35:12:335
3.4513,-7.9107,2.3716,-0.4731,-9.7279,-1.1465,0,0,0,-1.926,0.1535,-1.3478,47059,2021-05-19 17:35:12:335
3.4513,-7.9107,2.3716,-0.4731,-9.7279,-1.1465,0,0,0,-1.926,0.1535,-1.3478,47059,2021-05-19 17:35:12:335
3.4513,-7.9107,2.3716,-0.4731,-9.7279,-1.1465,0,0,0,-1.926,0.1535,-1.3478,47060,2021-05-19 17:35:12:336
3.4513,-7.9107,2.3716,-0.4731,-9.7279,-1.1465,0,0,0,-1.926,0.1535,-1.3478,47060,2021-05-19 17:35:12:336
3.4513,-7.9107,2.3716,-0.4731,-9.7279,-1.1465,0,0,0,-1.926,0.1535,-1.3478,47060,2021-05-19 17:35:12:336
3.4513,-7.9107,2.3716,-0.4731,-9.7279,-1.1465,0,0,0,-1.926,0.1535,-1.3478,47060,2021-05-19 17:35:12:336
3.4513,-7.9107,2.3716,-0.4731,-9.7279,-1.1465,0,0,0,-1.926,0.1535,-1.3478,47060,2021-05-19 17:35:12:336
3.4513,-7.9107,2.3716,-0.4731,-9.7279,-1.1465,0,0,0,-1.926,0.1535,-1.3478,47061,2021-05-19 17:35:12:337
3.4513,-7.9107,2.3716,-0.4731,-9.7279,-1.1465,0,0,0,-1.926,0.1535,-1.3478,47061,2021-05-19 17:35:12:337
3.4513,-7.9107,2.3716,-0.4731,-9.7279,-1.1465,0,0,0,-1.926,0.1535,-1.3478,47061,2021-05-19 17:35:12:337
3.4513,-7.9107,2.3716,-0.4731,-9.7279,-1.1465,0,0,0,-1.926,0.1535,-1.3478,47061,2021-05-19 17:35:12:337
3.4513,-7.9107,2.3716,-0.4731,-9.7279,-1.1465,0,0,0,-1.926,0.1535,-1.3478,47061,2021-05-19 17:35:12:337
6.3841,-9.0311,-4.5808,3.2059,-9.0526,-1.9858,0,0,0,0.4858,0.4054,0.2573,47074,2021-05-19 17:35:12:350
1.5,-12.1983,-0.0679,3.9108,-8.4781,-2.9996,-2.9433,-1.2755,2.6241,-1.7586,-0.0938,-0.5507,47606,2021-05-19 17:35:12:882
3.0826,-8.4805,-3.4531,2.7359,-9.0973,-2.4342,-0.1281,-0.7484,-1.1095,-0.42,1.0062,0.1443,48065,2021-05-19 17:35:13:341
5.0958,-7.7381,-2.4861,4.5402,-8.4069,-2.2092,-0.9398,-1.6097,2.5648,0.4914,0.2698,0.4448,48566,2021-05-19 17:35:13:842
7.3705,-10.7429,-3.1947,2.2622,-8.9563,-3.2921,0,0,0,0.0012,-1.7899,-0.3813,49065,2021-05-19 17:35:14:341
-1.3155,-20.5537,-6.0724,2.4528,-9.2341,-2.2105,6.8008,-6.088,-3.5746,-1.2017,-0.1703,0.481,49566,2021-05-19 17:35:14:842
7.7079,-5.3776,-1.8852,2.86,-9.0585,-2.4361,2.6579,4.2757,0.2581,-0.0962,-1.4224,-0.1194,50066,2021-05-19 17:35:15:342
5.3904,-6.4549,2.2041,3.3587,-9.1874,-0.6941,-2.235,5.8323,0.6374,2.1662,-0.1735,-0.2278,50565,2021-05-19 17:35:15:841
2.2038,-15.1816,-12.929,1.9362,-4.9368,-8.2492,0,0,0,-2.5819,2.304,-0.2772,51337,2021-05-19 17:35:16:613
2.2038,-15.1816,-12.929,1.9362,-4.9368,-8.2492,0,0,0,-2.5819,2.304,-0.2772,51338,2021-05-19 17:35:16:614
2.2038,-15.1816,-12.929,1.9362,-4.9368,-8.2492,0,0,0,-2.5819,2.304,-0.2772,51338,2021-05-19 17:35:16:614
2.2038,-15.1816,-12.929,1.9362,-4.9368,-8.2492,0,0,0,-2.5819,2.304,-0.2772,51339,2021-05-19 17:35:16:615
2.2038,-15.1816,-12.929,1.9362,-4.9368,-8.2492,0,0,0,-2.5819,2.304,-0.2772,51339,2021-05-19 17:35:16:615
2.2038,-15.1816,-12.929,1.9362,-4.9368,-8.2492,0,0,0,-2.5819,2.304,-0.2772,51339,2021-05-19 17:35:16:615
2.2038,-15.1816,-12.929,1.9362,-4.9368,-8.2492,0,0,0,-2.5819,2.304,-0.2772,51339,2021-05-19 17:35:16:615
2.2038,-15.1816,-12.929,1.9362,-4.9368,-8.2492,0,0,0,-2.5819,2.304,-0.2772,51340,2021-05-19 17:35:16:616
4.8876,-5.7751,-2.036,3.4931,-8.365,-3.741,0,0,0,-0.5279,-0.2309,0.5834,51757,2021-05-19 17:35:17:033
4.8876,-5.7751,-2.036,3.4931,-8.365,-3.741,0,0,0,-0.5279,-0.2309,0.5834,51758,2021-05-19 17:35:17:034
4.8876,-5.7751,-2.036,3.4931,-8.365,-3.741,0,0,0,-0.5279,-0.2309,0.5834,51758,2021-05-19 17:35:17:034
4.8876,-5.7751,-2.036,3.4931,-8.365,-3.741,0,0,0,-0.5279,-0.2309,0.5834,51758,2021-05-19 17:35:17:034
4.8876,-5.7751,-2.036,3.4931,-8.365,-3.741,0,0,0,-0.5279,-0.2309,0.5834,51758,2021-05-19 17:35:17:034
-0.961,-4.5278,-1.8685,-3.0617,-8.3553,-4.1214,0,0,0,1.4775,0.7275,-0.5415,52133,2021-05-19 17:35:17:409
5.7329,-6.7181,-2.6776,4.7914,-8.5281,-0.6962,-3.6873,4.1125,-0.0531,1.0235,0.611,0.4461,52632,2021-05-19 17:35:17:908
1.7154,-10.4602,-4.9615,3.5042,-8.5862,-3.1888,-4.1725,3.8514,0.5964,-0.7768,-0.2149,-0.9856,53132,2021-05-19 17:35:18:408
1.0427,-7.5323,-0.0535,3.5077,-9.0169,-1.6005,-0.3361,-5.2793,1.7159,-0.1417,0.8564,0.2358,53633,2021-05-19 17:35:18:909
3.1184,-10.6831,-1.2338,3.9909,-8.2272,-3.5436,-2.3113,-2.2263,1.0498,-1.2634,0.6464,-0.1518,54133,2021-05-19 17:35:19:409
5.6608,-12.1385,-6.6302,2.251,-9.2335,-2.4178,-5.2405,0.2495,2.6166,0.1994,-0.1017,0.6773,54632,2021-05-19 17:35:19:908
3.3673,-8.9136,-1.2051,3.1095,-9.2984,-0.2019,1.1465,0.0945,-0.2269,0.0307,0.959,0.2686,55132,2021-05-19 17:35:20:408
0.5782,-9.9598,-1.3705,1.8505,-9.5476,-1.261,1.8072,1.3339,0.5203,-0.9086,-0.425,0.1997,55632,2021-05-19 17:35:20:908
3.9347,-7.7812,7.5284,2.5125,-9.3402,-1.6183,-3.0216,-2.0658,-0.5901,-0.2825,0.2372,0.6127,56135,2021-05-19 17:35:21:411
5.5603,-11.2265,0.4612,3.3453,-9.1615,-1.0228,1.7434,0.8064,-2.3607,-0.2556,0.8289,0.2083,56633,2021-05-19 17:35:21:909
2.2397,-8.703,-1.1046,3.035,-9.0772,-2.1363,0.294,0.9685,-0.0342,0.7208,1.382,0.1371,57135,2021-05-19 17:35:22:411
3.5662,-7.4103,-3.6616,3.2722,-9.2267,-0.5759,0.3464,0.4932,0.1431,0.0802,0.118,-0.0192,57633,2021-05-19 17:35:22:909
-0.6165,-5.8684,-4.0735,2.3816,-7.7365,-5.5357,3.5341,-12.0812,-0.7429,-2.3586,-1.353,-0.1878,58133,2021-05-19 17:35:23:409
7.9089,-1.4201,-2.1628,4.1267,-8.3795,-2.9874,4.6778,3.9576,5.6009,-1.6481,0.1416,-0.7147,58635,2021-05-19 17:35:23:911
-3.4199,-8.6025,-2.3856,5.1032,-8.0103,-2.4417,0,0,0,0.757,1.5338,0.3943,59464,2021-05-19 17:35:24:740
-3.4199,-8.6025,-2.3856,5.1032,-8.0103,-2.4417,0,0,0,0.757,1.5338,0.3943,59465,2021-05-19 17:35:24:741
-3.4199,-8.6025,-2.3856,5.1032,-8.0103,-2.4417,0,0,0,0.757,1.5338,0.3943,59465,2021-05-19 17:35:24:741
-3.4199,-8.6025,-2.3856,5.1032,-8.0103,-2.4417,0,0,0,0.757,1.5338,0.3943,59466,2021-05-19 17:35:24:742
-3.4199,-8.6025,-2.3856,5.1032,-8.0103,-2.4417,0,0,0,0.757,1.5338,0.3943,59466,2021-05-19 17:35:24:742
-3.4199,-8.6025,-2.3856,5.1032,-8.0103,-2.4417,0,0,0,0.757,1.5338,0.3943,59466,2021-05-19 17:35:24:742
-3.4199,-8.6025,-2.3856,5.1032,-8.0103,-2.4417,0,0,0,0.757,1.5338,0.3943,59466,2021-05-19 17:35:24:742
-3.4199,-8.6025,-2.3856,5.1032,-8.0103,-2.4417,0,0,0,0.757,1.5338,0.3943,59477,2021-05-19 17:35:24:753
-3.4199,-8.6025,-2.3856,5.1032,-8.0103,-2.4417,0,0,0,0.757,1.5338,0.3943,59478,2021-05-19 17:35:24:754
-3.4199,-8.6025,-2.3856,5.1032,-8.0103,-2.4417,0,0,0,0.757,1.5338,0.3943,59479,2021-05-19 17:35:24:755
-3.4199,-8.6025,-2.3856,5.1032,-8.0103,-2.4417,0,0,0,0.757,1.5338,0.3943,59479,2021-05-19 17:35:24:755
-3.4199,-8.6025,-2.3856,5.1032,-8.0103,-2.4417,0,0,0,0.757,1.5338,0.3943,59479,2021-05-19 17:35:24:755
-3.4199,-8.6025,-2.3856,5.1032,-8.0103,-2.4417,0,0,0,0.757,1.5338,0.3943,59479,2021-05-19 17:35:24:755
-3.4199,-8.6025,-2.3856,5.1032,-8.0103,-2.4417,0,0,0,0.757,1.5338,0.3943,59479,2021-05-19 17:35:24:755
-3.4199,-8.6025,-2.3856,5.1032,-8.0103,-2.4417,0,0,0,0.757,1.5338,0.3943,59479,2021-05-19 17:35:24:755
-3.4199,-8.6025,-2.3856,5.1032,-8.0103,-2.4417,0,0,0,0.757,1.5338,0.3943,59479,2021-05-19 17:35:24:755
-3.4199,-8.6025,-2.3856,5.1032,-8.0103,-2.4417,0,0,0,0.757,1.5338,0.3943,59480,2021-05-19 17:35:24:756
-3.4199,-8.6025,-2.3856,5.1032,-8.0103,-2.4417,0,0,0,0.757,1.5338,0.3943,59480,2021-05-19 17:35:24:756
-3.4199,-8.6025,-2.3856,5.1032,-8.0103,-2.4417,0,0,0,0.757,1.5338,0.3943,59480,2021-05-19 17:35:24:756
-3.4199,-8.6025,-2.3856,5.1032,-8.0103,-2.4417,0,0,0,0.757,1.5338,0.3943,59480,2021-05-19 17:35:24:756
-3.4199,-8.6025,-2.3856,5.1032,-8.0103,-2.4417,0,0,0,0.757,1.5338,0.3943,59480,2021-05-19 17:35:24:756
-3.4199,-8.6025,-2.3856,5.1032,-8.0103,-2.4417,0,0,0,0.757,1.5338,0.3943,59480,2021-05-19 17:35:24:756
-3.4199,-8.6025,-2.3856,5.1032,-8.0103,-2.4417,0,0,0,0.757,1.5338,0.3943,59480,2021-05-19 17:35:24:756
-3.4199,-8.6025,-2.3856,5.1032,-8.0103,-2.4417,0,0,0,0.757,1.5338,0.3943,59481,2021-05-19 17:35:24:757
-3.4199,-8.6025,-2.3856,5.1032,-8.0103,-2.4417,0,0,0,0.757,1.5338,0.3943,59481,2021-05-19 17:35:24:757
1.1384,-10.3143,-1.6768,3.0565,-8.2698,-4.2939,-0.7811,0.3482,-0.0934,0.071,0.4662,-0.0861,59627,2021-05-19 17:35:24:903
3.8103,-8.9833,-0.5324,3.726,-9.0534,-0.5687,-0.413,0.1363,-0.0669,-0.0484,0.441,0.0582,60124,2021-05-19 17:35:25:400
6.3745,-10.6615,-3.9631,3.7739,-8.3745,-3.4345,2.5315,-0.4678,-0.4469,-1.6192,-0.7449,-0.8657,60659,2021-05-19 17:35:25:935
1.1913,-6.5195,-2.6847,2.0856,-9.232,-2.5672,2.951,1.5448,-0.2375,0.7846,1.0823,-0.3874,61125,2021-05-19 17:35:26:401
1.0355,-8.3103,-0.6688,3.4741,-8.8706,-2.3266,2.8754,-1.2755,3.0393,1.1269,0.0403,-0.0093,61841,2021-05-19 17:35:27:117
1.0355,-8.3103,-0.6688,3.4741,-8.8706,-2.3266,2.8754,-1.2755,3.0393,1.1269,0.0403,-0.0093,61842,2021-05-19 17:35:27:118
1.0355,-8.3103,-0.6688,3.4741,-8.8706,-2.3266,2.8754,-1.2755,3.0393,1.1269,0.0403,-0.0093,61842,2021-05-19 17:35:27:118
1.0355,-8.3103,-0.6688,3.4741,-8.8706,-2.3266,2.8754,-1.2755,3.0393,1.1269,0.0403,-0.0093,61842,2021-05-19 17:35:27:118
1.0355,-8.3103,-0.6688,3.4741,-8.8706,-2.3266,2.8754,-1.2755,3.0393,1.1269,0.0403,-0.0093,61842,2021-05-19 17:35:27:118
1.0355,-8.3103,-0.6688,3.4741,-8.8706,-2.3266,2.8754,-1.2755,3.0393,1.1269,0.0403,-0.0093,61842,2021-05-19 17:35:27:118
1.0355,-8.3103,-0.6688,3.4741,-8.8706,-2.3266,2.8754,-1.2755,3.0393,1.1269,0.0403,-0.0093,61843,2021-05-19 17:35:27:119
1.0355,-8.3103,-0.6688,3.4741,-8.8706,-2.3266,2.8754,-1.2755,3.0393,1.1269,0.0403,-0.0093,61843,2021-05-19 17:35:27:119
1.0355,-8.3103,-0.6688,3.4741,-8.8706,-2.3266,2.8754,-1.2755,3.0393,1.1269,0.0403,-0.0093,61843,2021-05-19 17:35:27:119
1.0355,-8.3103,-0.6688,3.4741,-8.8706,-2.3266,2.8754,-1.2755,3.0393,1.1269,0.0403,-0.0093,61843,2021-05-19 17:35:27:119
1.0355,-8.3103,-0.6688,3.4741,-8.8706,-2.3266,2.8754,-1.2755,3.0393,1.1269,0.0403,-0.0093,61843,2021-05-19 17:35:27:119
1.0355,-8.3103,-0.6688,3.4741,-8.8706,-2.3266,2.8754,-1.2755,3.0393,1.1269,0.0403,-0.0093,61843,2021-05-19 17:35:27:119
6.4439,-7.1874,-3.032,2.1476,-9.4076,-1.7477,0,0,0,2.0277,-0.2727,0.088,62273,2021-05-19 17:35:27:549
6.4439,-7.1874,-3.032,2.1476,-9.4076,-1.7477,0,0,0,2.0277,-0.2727,0.088,62274,2021-05-19 17:35:27:550
6.4439,-7.1874,-3.032,2.1476,-9.4076,-1.7477,0,0,0,2.0277,-0.2727,0.088,62274,2021-05-19 17:35:27:550
6.4439,-7.1874,-3.032,2.1476,-9.4076,-1.7477,0,0,0,2.0277,-0.2727,0.088,62274,2021-05-19 17:35:27:550
5.8023,-8.916,-1.5308,5.1911,-8.2956,-0.6374,0,0,0,-0.5075,0.0684,-0.0884,62327,2021-05-19 17:35:27:603
5.9363,-10.8434,-15.7804,6.1778,-7.3817,-1.8749,0,0,0,-1.2565,0.1251,-0.0649,62827,2021-05-19 17:35:28:103
5.2923,-6.1508,0.0087,-1.9489,-7.8361,-5.5649,0,0,0,-1.1354,0.0593,-0.0122,63327,2021-05-19 17:35:28:603
10.7845,-8.3749,-12.1008,3.5165,-9.119,-0.8052,1.6879,3.1226,0.2179,1.7108,1.2142,-0.7894,63828,2021-05-19 17:35:29:104
5.4335,-7.7788,0.5139,5.5713,-7.5608,-2.8223,1.6219,-1.7779,-3.3563,1.149,0.4795,0.7506,64327,2021-05-19 17:35:29:603
1.0235,-5.1981,-2.2513,2.3318,-8.9973,-3.1276,-0.8572,4.9253,1.0634,0.6683,1.5833,0.9031,64828,2021-05-19 17:35:30:104
3.5542,-8.758,-0.6162,3.4626,-9.1739,-0.1394,0.7299,0.6015,-0.1947,0.1283,0.6771,0.0093,65327,2021-05-19 17:35:30:603
-1.1743,-13.9603,-2.2777,3.6493,-8.8083,-2.295,-1.7784,-4.7403,0.7205,-2.5875,0.5684,0.1724,66152,2021-05-19 17:35:31:428
-1.1743,-13.9603,-2.2777,3.6493,-8.8083,-2.295,-1.7784,-4.7403,0.7205,-2.5875,0.5684,0.1724,66153,2021-05-19 17:35:31:429
-1.1743,-13.9603,-2.2777,3.6493,-8.8083,-2.295,-1.7784,-4.7403,0.7205,-2.5875,0.5684,0.1724,66154,2021-05-19 17:35:31:430
-1.1743,-13.9603,-2.2777,3.6493,-8.8083,-2.295,-1.7784,-4.7403,0.7205,-2.5875,0.5684,0.1724,66154,2021-05-19 17:35:31:430
-1.1743,-13.9603,-2.2777,3.6493,-8.8083,-2.295,-1.7784,-4.7403,0.7205,-2.5875,0.5684,0.1724,66154,2021-05-19 17:35:31:430
-1.1743,-13.9603,-2.2777,3.6493,-8.8083,-2.295,-1.7784,-4.7403,0.7205,-2.5875,0.5684,0.1724,66154,2021-05-19 17:35:31:430
-1.1743,-13.9603,-2.2777,3.6493,-8.8083,-2.295,-1.7784,-4.7403,0.7205,-2.5875,0.5684,0.1724,66154,2021-05-19 17:35:31:430
-1.1743,-13.9603,-2.2777,3.6493,-8.8083,-2.295,-1.7784,-4.7403,0.7205,-2.5875,0.5684,0.1724,66154,2021-05-19 17:35:31:430
-1.1743,-13.9603,-2.2777,3.6493,-8.8083,-2.295,-1.7784,-4.7403,0.7205,-2.5875,0.5684,0.1724,66155,2021-05-19 17:35:31:431
-1.1743,-13.9603,-2.2777,3.6493,-8.8083,-2.295,-1.7784,-4.7403,0.7205,-2.5875,0.5684,0.1724,66155,2021-05-19 17:35:31:431
-1.1743,-13.9603,-2.2777,3.6493,-8.8083,-2.295,-1.7784,-4.7403,0.7205,-2.5875,0.5684,0.1724,66155,2021-05-19 17:35:31:431
-1.1743,-13.9603,-2.2777,3.6493,-8.8083,-2.295,-1.7784,-4.7403,0.7205,-2.5875,0.5684,0.1724,66155,2021-05-19 17:35:31:431
-1.1743,-13.9603,-2.2777,3.6493,-8.8083,-2.295,-1.7784,-4.7403,0.7205,-2.5875,0.5684,0.1724,66155,2021-05-19 17:35:31:431
-4.43,-10.3262,-9.8791,5.1514,-6.9004,-4.6923,-0.3926,-10.5929,-6.6347,-0.6657,-0.2827,0.7034,66422,2021-05-19 17:35:31:698
1.4952,-9.0024,-3.0775,4.644,-7.4784,-4.3217,-3.4569,-3.1523,-1.1973,-0.4401,1.0548,-0.2978,66924,2021-05-19 17:35:32:200
1.0834,-4.3481,5.3426,4.5445,-8.2875,-2.6145,3.0957,-10.8925,0.8991,-0.613,2.3759,0.1961,67422,2021-05-19 17:35:32:698
4.8589,-10.7022,-3.7717,5.7915,-7.9126,0.1433,0,0,0,0.1023,0.7312,0.1749,67922,2021-05-19 17:35:33:198
0.0371,-6.0215,-2.3231,2.5535,-9.0014,-2.9368,-3.0096,1.9283,0.3548,-0.7865,-0.525,0.6173,68609,2021-05-19 17:35:33:885
0.0371,-6.0215,-2.3231,2.5535,-9.0014,-2.9368,-3.0096,1.9283,0.3548,-0.7865,-0.525,0.6173,68610,2021-05-19 17:35:33:886
5.9507,-16.5509,-6.3861,3.8605,-7.4089,-5.1357,0.6453,-5.6372,-3.219,-0.4163,-1.0423,0.3373,68998,2021-05-19 17:35:34:274
8.4165,-14.6309,11.5265,4.0612,-8.7233,-1.8922,-0.5698,1.1734,-5.0543,0.926,0.201,-0.3604,69498,2021-05-19 17:35:34:774
1.2009,-3.0649,1.9884,5.3559,-7.0916,-4.1465,0,0,0,-1.1009,0.1002,0.4374,69998,2021-05-19 17:35:35:274
0.8345,-8.327,-12.2252,1.537,-9.4049,-2.3143,-0.1368,0.9238,-0.0948,1.8602,0.5475,-0.6551,70498,2021-05-19 17:35:35:774
22.4746,-15.0018,-26.8771,3.7176,-8.2981,-3.6731,1.9364,-9.6624,5.7488,-1.7046,1.3776,-0.1816,71018,2021-05-19 17:35:36:294
22.4746,-15.0018,-26.8771,3.7176,-8.2981,-3.6731,1.9364,-9.6624,5.7488,-1.7046,1.3776,-0.1816,71019,2021-05-19 17:35:36:295
22.4746,-15.0018,-26.8771,3.7176,-8.2981,-3.6731,1.9364,-9.6624,5.7488,-1.7046,1.3776,-0.1816,71019,2021-05-19 17:35:36:295
22.4746,-15.0018,-26.8771,3.7176,-8.2981,-3.6731,1.9364,-9.6624,5.7488,-1.7046,1.3776,-0.1816,71019,2021-05-19 17:35:36:295
22.4746,-15.0018,-26.8771,3.7176,-8.2981,-3.6731,1.9364,-9.6624,5.7488,-1.7046,1.3776,-0.1816,71019,2021-05-19 17:35:36:295
3.2429,-8.5666,1.0549,3.341,-9.039,-1.8179,0,0,0,-1.5763,1.9202,9.00E-04,71131,2021-05-19 17:35:36:407
3.8366,-7.9059,-1.0615,5.4229,-8.1265,-0.8499,0.4328,0.1499,-0.1135,-0.0815,0.2734,-0.0305,71631,2021-05-19 17:35:36:907
4.8159,-5.2603,-3.2115,5.601,-7.142,-3.7136,0,0,0,-0.1425,0.8691,0.1182,72131,2021-05-19 17:35:37:407
4.2867,-8.2026,-0.5563,3.7196,-8.9517,-1.4838,5.3515,-4.6085,-2.2794,0.2944,-0.2256,0.5731,72631,2021-05-19 17:35:37:907
2.9366,-9.146,-3.1014,3.8683,-9.0092,0.2017,0,0,0,-1.4534,0.5511,-0.2927,73131,2021-05-19 17:35:38:407
2.9533,-5.8062,-1.5045,2.7712,-8.7804,-3.3758,-1.1403,2.6319,0.0462,0.5582,0.2223,0.8834,73631,2021-05-19 17:35:38:907
4.1575,-8.4111,-1.5667,4.1314,-8.7734,-1.459,-2.9464,2.2158,-1.1668,1.094,0.3074,0.3335,74131,2021-05-19 17:35:39:407
-3.2354,-4.6211,-1.0591,4.5782,-7.5039,-4.3477,2.8863,-5.4909,0.0715,1.1085,-0.7585,0.7127,74911,2021-05-19 17:35:40:187
-3.2354,-4.6211,-1.0591,4.5782,-7.5039,-4.3477,2.8863,-5.4909,0.0715,1.1085,-0.7585,0.7127,74912,2021-05-19 17:35:40:188
-3.2354,-4.6211,-1.0591,4.5782,-7.5039,-4.3477,2.8863,-5.4909,0.0715,1.1085,-0.7585,0.7127,74912,2021-05-19 17:35:40:188
-3.2354,-4.6211,-1.0591,4.5782,-7.5039,-4.3477,2.8863,-5.4909,0.0715,1.1085,-0.7585,0.7127,74913,2021-05-19 17:35:40:189
-3.2354,-4.6211,-1.0591,4.5782,-7.5039,-4.3477,2.8863,-5.4909,0.0715,1.1085,-0.7585,0.7127,74913,2021-05-19 17:35:40:189
-4.1405,-5.9641,-1.9929,2.8832,-7.6742,-5.3819,0,0,0,0.368,-0.2417,0.4997,75308,2021-05-19 17:35:40:584
-4.1405,-5.9641,-1.9929,2.8832,-7.6742,-5.3819,0,0,0,0.368,-0.2417,0.4997,75309,2021-05-19 17:35:40:585
-4.1405,-5.9641,-1.9929,2.8832,-7.6742,-5.3819,0,0,0,0.368,-0.2417,0.4997,75309,2021-05-19 17:35:40:585
2.7353,-2.155,0.425,-4.132,-6.3494,-6.2275,0,0,0,1.1563,0.5049,1.2374,75750,2021-05-19 17:35:41:026
2.7353,-2.155,0.425,-4.132,-6.3494,-6.2275,0,0,0,1.1563,0.5049,1.2374,75751,2021-05-19 17:35:41:027
2.7353,-2.155,0.425,-4.132,-6.3494,-6.2275,0,0,0,1.1563,0.5049,1.2374,75751,2021-05-19 17:35:41:027
2.7353,-2.155,0.425,-4.132,-6.3494,-6.2275,0,0,0,1.1563,0.5049,1.2374,76063,2021-05-19 17:35:41:339
2.7353,-2.155,0.425,-4.132,-6.3494,-6.2275,0,0,0,1.1563,0.5049,1.2374,76064,2021-05-19 17:35:41:340
2.7353,-2.155,0.425,-4.132,-6.3494,-6.2275,0,0,0,1.1563,0.5049,1.2374,76064,2021-05-19 17:35:41:340
2.7353,-2.155,0.425,-4.132,-6.3494,-6.2275,0,0,0,1.1563,0.5049,1.2374,76064,2021-05-19 17:35:41:340
4.2939,-9.8115,-1.5093,2.5698,-9.4327,0.7692,0,0,0,0.1973,-0.6706,0.3496,76139,2021-05-19 17:35:41:415
5.709,-8.2911,-7.3675,5.9289,-6.3995,-4.4794,0.5227,-2.395,-1.8277,-0.3496,-0.9845,0.2239,76783,2021-05-19 17:35:42:059
5.709,-8.2911,-7.3675,5.9289,-6.3995,-4.4794,0.5227,-2.395,-1.8277,-0.3496,-0.9845,0.2239,76784,2021-05-19 17:35:42:060
5.709,-8.2911,-7.3675,5.9289,-6.3995,-4.4794,0.5227,-2.395,-1.8277,-0.3496,-0.9845,0.2239,76784,2021-05-19 17:35:42:060
1.5574,-13.7402,-2.6704,1.5481,-9.1138,-3.273,0.9836,1.1214,0.9678,0.0502,1.6134,0.0302,77183,2021-05-19 17:35:42:459
6.786,-8.916,-0.4917,3.6795,-9.0902,-0.0022,1.4247,0.4494,-1.0379,0.0102,1.0558,0.2065,77682,2021-05-19 17:35:42:958
1.136,-7.1898,-2.5244,1.7227,-9.5543,-1.3848,0.1367,1.8672,-1.6975,0.4045,0.9047,0.4824,78181,2021-05-19 17:35:43:457
5.6779,-8.4781,0.2168,2.3789,-9.2931,-2.037,0,0,0,-0.1014,1.2579,0.1552,78680,2021-05-19 17:35:43:956
2.8935,-5.8062,-2.0743,3.7434,-8.7846,-2.2334,-1.5498,3.3481,-0.3878,1.0543,1.5381,0.168,79182,2021-05-19 17:35:44:458
3.5662,-9.8019,-0.8007,3.353,-9.203,-0.4823,-0.0359,1.1032,0.3362,-0.0669,0.7669,0.2288,79681,2021-05-19 17:35:44:957
18.7448,-16.5796,-7.4515,3.1162,-8.6009,-3.5334,3.2107,2.7519,-0.0831,-1.107,-0.8702,0.0496,80184,2021-05-19 17:35:45:460
-1.7058,-11.8872,-7.4154,2.7256,-9.0052,-2.7653,0,0,0,-0.2926,0.5995,-0.2709,80680,2021-05-19 17:35:45:956
-1.7058,-11.8872,-7.4154,2.7256,-9.0052,-2.7653,0,0,0,-0.2926,0.5995,-0.2709,80681,2021-05-19 17:35:45:957
-1.7058,-11.8872,-7.4154,2.7256,-9.0052,-2.7653,0,0,0,-0.2926,0.5995,-0.2709,80682,2021-05-19 17:35:45:958
-1.7058,-11.8872,-7.4154,2.7256,-9.0052,-2.7653,0,0,0,-0.2926,0.5995,-0.2709,80682,2021-05-19 17:35:45:958
-1.7058,-11.8872,-7.4154,2.7256,-9.0052,-2.7653,0,0,0,-0.2926,0.5995,-0.2709,80683,2021-05-19 17:35:45:959
5.2995,-7.9657,-2.8331,3.3574,-9.2103,-0.2616,1.4141,3.6736,-2.6421,0.48,0.801,0.5689,81175,2021-05-19 17:35:46:451
3.7409,-6.7591,-2.8307,3.03,-8.6936,-3.3781,0.4119,2.648,0.917,-0.3393,0.4978,0.6287,81675,2021-05-19 17:35:46:951
1.5191,-8.3462,0.6933,3.408,-9.1944,-0.1369,0.4532,-0.3742,-1.9327,-0.3263,1.8425,-0.0967,82175,2021-05-19 17:35:47:451
5.2875,-4.9848,1.4163,4.337,-8.4265,-2.5211,-1.4943,0.9417,0.0634,-1.753,-0.1646,0.0577,82675,2021-05-19 17:35:47:951
2.417,-6.352,-0.8342,5.1301,-6.8361,-4.8083,0,0,0,1.025,0.3859,0.3505,83176,2021-05-19 17:35:48:452
2.417,-6.352,-0.8342,5.1301,-6.8361,-4.8083,0,0,0,1.025,0.3859,0.3505,83178,2021-05-19 17:35:48:454
2.417,-6.352,-0.8342,5.1301,-6.8361,-4.8083,0,0,0,1.025,0.3859,0.3505,83179,2021-05-19 17:35:48:455
2.417,-6.352,-0.8342,5.1301,-6.8361,-4.8083,0,0,0,1.025,0.3859,0.3505,83179,2021-05-19 17:35:48:455
2.417,-6.352,-0.8342,5.1301,-6.8361,-4.8083,0,0,0,1.025,0.3859,0.3505,83180,2021-05-19 17:35:48:456
5.2181,-8.7796,1.0214,5.6747,-7.9484,-0.8891,0,0,0,-0.452,1.8121,-0.3755,83599,2021-05-19 17:35:48:875
5.2181,-8.7796,1.0214,5.6747,-7.9484,-0.8891,0,0,0,-0.452,1.8121,-0.3755,83601,2021-05-19 17:35:48:877
5.2181,-8.7796,1.0214,5.6747,-7.9484,-0.8891,0,0,0,-0.452,1.8121,-0.3755,83601,2021-05-19 17:35:48:877
5.2181,-8.7796,1.0214,5.6747,-7.9484,-0.8891,0,0,0,-0.452,1.8121,-0.3755,83602,2021-05-19 17:35:48:878
5.2181,-8.7796,1.0214,5.6747,-7.9484,-0.8891,0,0,0,-0.452,1.8121,-0.3755,83603,2021-05-19 17:35:48:879
5.2181,-8.7796,1.0214,5.6747,-7.9484,-0.8891,0,0,0,-0.452,1.8121,-0.3755,83604,2021-05-19 17:35:48:880
5.2181,-8.7796,1.0214,5.6747,-7.9484,-0.8891,0,0,0,-0.452,1.8121,-0.3755,83604,2021-05-19 17:35:48:880
5.2181,-8.7796,1.0214,5.6747,-7.9484,-0.8891,0,0,0,-0.452,1.8121,-0.3755,83605,2021-05-19 17:35:48:881
5.2181,-8.7796,1.0214,5.6747,-7.9484,-0.8891,0,0,0,-0.452,1.8121,-0.3755,83605,2021-05-19 17:35:48:881
5.2181,-8.7796,1.0214,5.6747,-7.9484,-0.8891,0,0,0,-0.452,1.8121,-0.3755,83606,2021-05-19 17:35:48:882
5.2181,-8.7796,1.0214,5.6747,-7.9484,-0.8891,0,0,0,-0.452,1.8121,-0.3755,83606,2021-05-19 17:35:48:882
-2.3426,-9.7158,-2.1485,3.952,-8.1697,-3.7159,-4.2189,-1.0921,3.6162,-0.452,1.8121,-0.3755,83956,2021-05-19 17:35:49:232
-2.3426,-9.7158,-2.1485,3.952,-8.1697,-3.7159,-4.2189,-1.0921,3.6162,-0.452,1.8121,-0.3755,83957,2021-05-19 17:35:49:233
-2.3426,-9.7158,-2.1485,3.952,-8.1697,-3.7159,-4.2189,-1.0921,3.6162,-0.452,1.8121,-0.3755,83958,2021-05-19 17:35:49:234
-2.3426,-9.7158,-2.1485,3.952,-8.1697,-3.7159,-4.2189,-1.0921,3.6162,-0.452,1.8121,-0.3755,83958,2021-05-19 17:35:49:234
-2.3426,-9.7158,-2.1485,3.952,-8.1697,-3.7159,-4.2189,-1.0921,3.6162,-0.452,1.8121,-0.3755,83958,2021-05-19 17:35:49:234
-2.3426,-9.7158,-2.1485,3.952,-8.1697,-3.7159,-4.2189,-1.0921,3.6162,-0.452,1.8121,-0.3755,83959,2021-05-19 17:35:49:235
-2.3426,-9.7158,-2.1485,3.952,-8.1697,-3.7159,-4.2189,-1.0921,3.6162,-0.452,1.8121,-0.3755,83959,2021-05-19 17:35:49:235
-2.3426,-9.7158,-2.1485,3.952,-8.1697,-3.7159,-4.2189,-1.0921,3.6162,-0.452,1.8121,-0.3755,83960,2021-05-19 17:35:49:236
-2.3426,-9.7158,-2.1485,3.952,-8.1697,-3.7159,-4.2189,-1.0921,3.6162,-0.452,1.8121,-0.3755,83960,2021-05-19 17:35:49:236
-2.3426,-9.7158,-2.1485,3.952,-8.1697,-3.7159,-4.2189,-1.0921,3.6162,-0.452,1.8121,-0.3755,83961,2021-05-19 17:35:49:237
-2.3426,-9.7158,-2.1485,3.952,-8.1697,-3.7159,-4.2189,-1.0921,3.6162,-0.452,1.8121,-0.3755,83961,2021-05-19 17:35:49:237
-2.3426,-9.7158,-2.1485,3.952,-8.1697,-3.7159,-4.2189,-1.0921,3.6162,-0.452,1.8121,-0.3755,83962,2021-05-19 17:35:49:238
-2.3426,-9.7158,-2.1485,3.952,-8.1697,-3.7159,-4.2189,-1.0921,3.6162,-0.452,1.8121,-0.3755,83962,2021-05-19 17:35:49:238
-2.3426,-9.7158,-2.1485,3.952,-8.1697,-3.7159,-4.2189,-1.0921,3.6162,-0.452,1.8121,-0.3755,83963,2021-05-19 17:35:49:239
-2.3426,-9.7158,-2.1485,3.952,-8.1697,-3.7159,-4.2189,-1.0921,3.6162,-0.452,1.8121,-0.3755,83963,2021-05-19 17:35:49:239
-2.3426,-9.7158,-2.1485,3.952,-8.1697,-3.7159,-4.2189,-1.0921,3.6162,-0.452,1.8121,-0.3755,83963,2021-05-19 17:35:49:239
-2.3426,-9.7158,-2.1485,3.952,-8.1697,-3.7159,-4.2189,-1.0921,3.6162,-0.452,1.8121,-0.3755,83964,2021-05-19 17:35:49:240
-2.3426,-9.7158,-2.1485,3.952,-8.1697,-3.7159,-4.2189,-1.0921,3.6162,-0.452,1.8121,-0.3755,83964,2021-05-19 17:35:49:240
4.9905,-7.1803,-1.3226,3.1775,-8.9156,-2.5663,1.3256,0.078,-0.4323,-0.058,0.9413,0.2477,84112,2021-05-19 17:35:49:388
4.0522,-8.217,-4.4061,4.276,-8.6514,-1.7434,-0.8914,-1.9575,1.2005,0.8909,0.2895,0.2727,84611,2021-05-19 17:35:49:887
-1.3059,-2.8591,-2.0049,4.4182,-7.3335,-4.7822,-1.055,-6.1401,1.407,-0.9532,-0.4455,-0.3173,85111,2021-05-19 17:35:50:387
11.0979,-10.8027,-0.1253,4.128,-8.645,-2.0961,5.7104,-3.2062,1.0295,-1.5737,0.6194,-0.6762,85611,2021-05-19 17:35:50:887
2.4745,-14.8511,-4.0687,4.5138,-7.706,-4.0515,-2.4614,-3.8029,0.6402,-0.3781,0.3296,-0.5928,86111,2021-05-19 17:35:51:387
5.0049,-8.7987,-2.7709,5.4001,-7.8713,-2.2475,8.0041,-1.6088,1.4707,-2.096,1.1047,-0.1791,86612,2021-05-19 17:35:51:888
-0.8868,-3.4576,-1.0376,4.0929,-7.9706,-3.9859,-1.7984,-6.0546,-1.4533,-0.0122,0.489,-0.0163,87112,2021-05-19 17:35:52:388
2.8334,-5.1503,9.2928,3.6431,-8.7309,-2.5826,-1.3932,3.3977,3.8621,0.3858,1.189,-0.2292,87611,2021-05-19 17:35:52:887
4.8302,-8.0399,-0.5013,4.0135,-8.9477,0.0089,0.6137,1.8248,-0.2163,-0.3085,1.1609,0.1103,88373,2021-05-19 17:35:53:649
4.8302,-8.0399,-0.5013,4.0135,-8.9477,0.0089,0.6137,1.8248,-0.2163,-0.3085,1.1609,0.1103,88373,2021-05-19 17:35:53:649
4.8302,-8.0399,-0.5013,4.0135,-8.9477,0.0089,0.6137,1.8248,-0.2163,-0.3085,1.1609,0.1103,88374,2021-05-19 17:35:53:650
4.8302,-8.0399,-0.5013,4.0135,-8.9477,0.0089,0.6137,1.8248,-0.2163,-0.3085,1.1609,0.1103,88374,2021-05-19 17:35:53:650
14.6411,-14.4057,-12.0218,5.953,-6.3335,-4.5409,0,0,0,0.3778,1.2893,-0.4931,88640,2021-05-19 17:35:53:916
4.0953,-8.4829,-2.5077,3.6904,-9.07,-0.5348,1.1317,-0.037,-0.8007,0.233,-0.0467,0.0412,89141,2021-05-19 17:35:54:417
3.6452,-10.3645,-3.4029,3.9726,-8.0269,-3.9947,0.4618,-4.2981,-0.7281,0.4595,-0.2779,-0.5559,89640,2021-05-19 17:35:54:916
-1.2413,-9.0838,-4.5449,3.8058,-8.8818,-1.6732,1.4516,-0.3225,1.5105,1.4715,-0.4841,0.204,90140,2021-05-19 17:35:55:416
1.9095,-7.0989,-3.7023,3.5493,-8.8435,-2.3161,-0.7425,4.5169,0.5691,-0.5829,0.2466,0.2495,90706,2021-05-19 17:35:55:982
1.9095,-7.0989,-3.7023,3.5493,-8.8435,-2.3161,-0.7425,4.5169,0.5691,-0.5829,0.2466,0.2495,90707,2021-05-19 17:35:55:983
1.9095,-7.0989,-3.7023,3.5493,-8.8435,-2.3161,-0.7425,4.5169,0.5691,-0.5829,0.2466,0.2495,90708,2021-05-19 17:35:55:984
1.9095,-7.0989,-3.7023,3.5493,-8.8435,-2.3161,-0.7425,4.5169,0.5691,-0.5829,0.2466,0.2495,90708,2021-05-19 17:35:55:984
10.576,-3.5151,-5.1987,7.6521,-6.0634,0.9229,0,0,0,-1.0519,-1.6456,-0.4285,90741,2021-05-19 17:35:56:017
5.1368,-7.9059,-2.9985,1.6426,-9.0944,3.2808,0,0,0,-0.6713,1.2806,0.093,91241,2021-05-19 17:35:56:517
5.1368,-7.9059,-2.9985,1.6426,-9.0944,3.2808,0,0,0,-0.6713,1.2806,0.093,91242,2021-05-19 17:35:56:518
5.1368,-7.9059,-2.9985,1.6426,-9.0944,3.2808,0,0,0,-0.6713,1.2806,0.093,91243,2021-05-19 17:35:56:519
5.1368,-7.9059,-2.9985,1.6426,-9.0944,3.2808,0,0,0,-0.6713,1.2806,0.093,91243,2021-05-19 17:35:56:519
5.1368,-7.9059,-2.9985,1.6426,-9.0944,3.2808,0,0,0,-0.6713,1.2806,0.093,91244,2021-05-19 17:35:56:520
5.1368,-7.9059,-2.9985,1.6426,-9.0944,3.2808,0,0,0,-0.6713,1.2806,0.093,91245,2021-05-19 17:35:56:521
5.1368,-7.9059,-2.9985,1.6426,-9.0944,3.2808,0,0,0,-0.6713,1.2806,0.093,91245,2021-05-19 17:35:56:521
5.1368,-7.9059,-2.9985,1.6426,-9.0944,3.2808,0,0,0,-0.6713,1.2806,0.093,91246,2021-05-19 17:35:56:522
5.1368,-7.9059,-2.9985,1.6426,-9.0944,3.2808,0,0,0,-0.6713,1.2806,0.093,91247,2021-05-19 17:35:56:523
5.1368,-7.9059,-2.9985,1.6426,-9.0944,3.2808,0,0,0,-0.6713,1.2806,0.093,91249,2021-05-19 17:35:56:525
5.1368,-7.9059,-2.9985,1.6426,-9.0944,3.2808,0,0,0,-0.6713,1.2806,0.093,91249,2021-05-19 17:35:56:525
5.1368,-7.9059,-2.9985,1.6426,-9.0944,3.2808,0,0,0,-0.6713,1.2806,0.093,91249,2021-05-19 17:35:56:525
5.1368,-7.9059,-2.9985,1.6426,-9.0944,3.2808,0,0,0,-0.6713,1.2806,0.093,91605,2021-05-19 17:35:56:881
5.1368,-7.9059,-2.9985,1.6426,-9.0944,3.2808,0,0,0,-0.6713,1.2806,0.093,91605,2021-05-19 17:35:56:881
5.1368,-7.9059,-2.9985,1.6426,-9.0944,3.2808,0,0,0,-0.6713,1.2806,0.093,91606,2021-05-19 17:35:56:882
5.1368,-7.9059,-2.9985,1.6426,-9.0944,3.2808,0,0,0,-0.6713,1.2806,0.093,91606,2021-05-19 17:35:56:882
5.1368,-7.9059,-2.9985,1.6426,-9.0944,3.2808,0,0,0,-0.6713,1.2806,0.093,91606,2021-05-19 17:35:56:882
5.1368,-7.9059,-2.9985,1.6426,-9.0944,3.2808,0,0,0,-0.6713,1.2806,0.093,91606,2021-05-19 17:35:56:882
5.1368,-7.9059,-2.9985,1.6426,-9.0944,3.2808,0,0,0,-0.6713,1.2806,0.093,91606,2021-05-19 17:35:56:882
5.1368,-7.9059,-2.9985,1.6426,-9.0944,3.2808,0,0,0,-0.6713,1.2806,0.093,91606,2021-05-19 17:35:56:882
5.1368,-7.9059,-2.9985,1.6426,-9.0944,3.2808,0,0,0,-0.6713,1.2806,0.093,91607,2021-05-19 17:35:56:883
5.1368,-7.9059,-2.9985,1.6426,-9.0944,3.2808,0,0,0,-0.6713,1.2806,0.093,91607,2021-05-19 17:35:56:883
5.1368,-7.9059,-2.9985,1.6426,-9.0944,3.2808,0,0,0,-0.6713,1.2806,0.093,91607,2021-05-19 17:35:56:883
5.1368,-7.9059,-2.9985,1.6426,-9.0944,3.2808,0,0,0,-0.6713,1.2806,0.093,91607,2021-05-19 17:35:56:883
5.1368,-7.9059,-2.9985,1.6426,-9.0944,3.2808,0,0,0,-0.6713,1.2806,0.093,91607,2021-05-19 17:35:56:883
5.1368,-7.9059,-2.9985,1.6426,-9.0944,3.2808,0,0,0,-0.6713,1.2806,0.093,91607,2021-05-19 17:35:56:883
5.1368,-7.9059,-2.9985,1.6426,-9.0944,3.2808,0,0,0,-0.6713,1.2806,0.093,91607,2021-05-19 17:35:56:883
5.1368,-7.9059,-2.9985,1.6426,-9.0944,3.2808,0,0,0,-0.6713,1.2806,0.093,91608,2021-05-19 17:35:56:884
5.1368,-7.9059,-2.9985,1.6426,-9.0944,3.2808,0,0,0,-0.6713,1.2806,0.093,91608,2021-05-19 17:35:56:884
5.1368,-7.9059,-2.9985,1.6426,-9.0944,3.2808,0,0,0,-0.6713,1.2806,0.093,91608,2021-05-19 17:35:56:884
5.1368,-7.9059,-2.9985,1.6426,-9.0944,3.2808,0,0,0,-0.6713,1.2806,0.093,91617,2021-05-19 17:35:56:893
5.1368,-7.9059,-2.9985,1.6426,-9.0944,3.2808,0,0,0,-0.6713,1.2806,0.093,91618,2021-05-19 17:35:56:894
5.1368,-7.9059,-2.9985,1.6426,-9.0944,3.2808,0,0,0,-0.6713,1.2806,0.093,91618,2021-05-19 17:35:56:894
5.1368,-7.9059,-2.9985,1.6426,-9.0944,3.2808,0,0,0,-0.6713,1.2806,0.093,91618,2021-05-19 17:35:56:894
5.1368,-7.9059,-2.9985,1.6426,-9.0944,3.2808,0,0,0,-0.6713,1.2806,0.093,91618,2021-05-19 17:35:56:894
5.1368,-7.9059,-2.9985,1.6426,-9.0944,3.2808,0,0,0,-0.6713,1.2806,0.093,91618,2021-05-19 17:35:56:894
5.1368,-7.9059,-2.9985,1.6426,-9.0944,3.2808,0,0,0,-0.6713,1.2806,0.093,91619,2021-05-19 17:35:56:895
5.1368,-7.9059,-2.9985,1.6426,-9.0944,3.2808,0,0,0,-0.6713,1.2806,0.093,91619,2021-05-19 17:35:56:895
5.1368,-7.9059,-2.9985,1.6426,-9.0944,3.2808,0,0,0,-0.6713,1.2806,0.093,91619,2021-05-19 17:35:56:895
5.1368,-7.9059,-2.9985,1.6426,-9.0944,3.2808,0,0,0,-0.6713,1.2806,0.093,91619,2021-05-19 17:35:56:895
5.1368,-7.9059,-2.9985,1.6426,-9.0944,3.2808,0,0,0,-0.6713,1.2806,0.093,91619,2021-05-19 17:35:56:895
-0.6978,-7.1563,-0.8797,0.6005,-9.3418,-2.9224,0,0,0,-1.7544,-1.1551,-0.1802,91729,2021-05-19 17:35:57:005
5.7975,-8.138,0.5378,7.0369,-6.7814,0.8158,0,0,0,0.276,-0.9572,1.5964,92229,2021-05-19 17:35:57:505
5.7975,-8.138,0.5378,7.0369,-6.7814,0.8158,0,0,0,0.276,-0.9572,1.5964,92230,2021-05-19 17:35:57:506
5.7975,-8.138,0.5378,7.0369,-6.7814,0.8158,0,0,0,0.276,-0.9572,1.5964,92230,2021-05-19 17:35:57:506
5.7975,-8.138,0.5378,7.0369,-6.7814,0.8158,0,0,0,0.276,-0.9572,1.5964,92231,2021-05-19 17:35:57:507
5.7975,-8.138,0.5378,7.0369,-6.7814,0.8158,0,0,0,0.276,-0.9572,1.5964,92231,2021-05-19 17:35:57:507
3.0251,-5.5834,-5.4476,4.6911,-8.0675,-3.0132,-0.2032,0.7286,-0.6124,-2.2501,0.4635,-0.2694,92825,2021-05-19 17:35:58:101
3.0251,-5.5834,-5.4476,4.6911,-8.0675,-3.0132,-0.2032,0.7286,-0.6124,-2.2501,0.4635,-0.2694,92825,2021-05-19 17:35:58:101
3.0251,-5.5834,-5.4476,4.6911,-8.0675,-3.0132,-0.2032,0.7286,-0.6124,-2.2501,0.4635,-0.2694,92826,2021-05-19 17:35:58:102
5.1751,-5.2196,-5.0285,1.3593,-8.1174,5.332,0,0,0,-1.2176,-0.0289,0.0869,93268,2021-05-19 17:35:58:544
9.5967,-14.1257,-8.8687,6.366,-5.9545,-4.4931,1.0958,-0.3473,-0.1002,0.3124,-0.0021,-0.2863,93473,2021-05-19 17:35:58:749
2.6922,-8.7485,6.3793,3.3608,-9.0991,-1.443,0.8427,-0.236,-6.6117,-1.3843,1.9182,0.0701,93911,2021-05-19 17:35:59:187
1.354,-14.7841,-3.1851,4.5783,-8.6089,-1.0467,-0.9058,-1.2062,-2.6645,-2.4727,-0.1341,0.1852,94410,2021-05-19 17:35:59:686
5.2947,-6.8812,-4.0373,3.1217,-9.1353,-1.7239,1.0098,1.7444,-1.0449,0.4859,0.9442,0.3271,94910,2021-05-19 17:36:00:186
5.8454,-8.557,-0.4463,2.3946,-9.4771,0.7883,0,0,0,0.1277,0.4138,0.0556,95410,2021-05-19 17:36:00:686
0.7172,-1.0322,-2.0934,4.0023,-8.3952,-3.1101,4.7304,0.291,0.0254,-0.5647,-0.4908,0.2897,95910,2021-05-19 17:36:01:186
2.5965,-5.5451,-2.7924,3.6479,-8.5449,-3.1381,-4.04,2.7687,0.6075,0.4467,1.0407,-0.1559,96410,2021-05-19 17:36:01:686
4.0235,-4.4079,-2.2609,3.9955,-8.4793,-2.8825,1.2895,2.7965,-0.5703,-1.1259,0.9558,0.2129,96910,2021-05-19 17:36:02:186
7.7414,-12.1648,-3.5874,7.7323,-4.7975,-3.6559,0,0,0,0.7407,-0.0177,0.4772,97410,2021-05-19 17:36:02:686
7.7414,-12.1648,-3.5874,7.7323,-4.7975,-3.6559,0,0,0,0.7407,-0.0177,0.4772,97411,2021-05-19 17:36:02:687
7.7414,-12.1648,-3.5874,7.7323,-4.7975,-3.6559,0,0,0,0.7407,-0.0177,0.4772,97411,2021-05-19 17:36:02:687
7.7414,-12.1648,-3.5874,7.7323,-4.7975,-3.6559,0,0,0,0.7407,-0.0177,0.4772,97411,2021-05-19 17:36:02:687
7.7414,-12.1648,-3.5874,7.7323,-4.7975,-3.6559,0,0,0,0.7407,-0.0177,0.4772,97412,2021-05-19 17:36:02:688
7.7414,-12.1648,-3.5874,7.7323,-4.7975,-3.6559,0,0,0,0.7407,-0.0177,0.4772,97412,2021-05-19 17:36:02:688
7.7414,-12.1648,-3.5874,7.7323,-4.7975,-3.6559,0,0,0,0.7407,-0.0177,0.4772,97412,2021-05-19 17:36:02:688
7.7414,-12.1648,-3.5874,7.7323,-4.7975,-3.6559,0,0,0,0.7407,-0.0177,0.4772,97413,2021-05-19 17:36:02:689
7.7414,-12.1648,-3.5874,7.7323,-4.7975,-3.6559,0,0,0,0.7407,-0.0177,0.4772,97413,2021-05-19 17:36:02:689
7.7414,-12.1648,-3.5874,7.7323,-4.7975,-3.6559,0,0,0,0.7407,-0.0177,0.4772,97413,2021-05-19 17:36:02:689
7.7414,-12.1648,-3.5874,7.7323,-4.7975,-3.6559,0,0,0,0.7407,-0.0177,0.4772,97413,2021-05-19 17:36:02:689
7.7414,-12.1648,-3.5874,7.7323,-4.7975,-3.6559,0,0,0,0.7407,-0.0177,0.4772,97413,2021-05-19 17:36:02:689
7.7414,-12.1648,-3.5874,7.7323,-4.7975,-3.6559,0,0,0,0.7407,-0.0177,0.4772,97414,2021-05-19 17:36:02:690
7.7414,-12.1648,-3.5874,7.7323,-4.7975,-3.6559,0,0,0,0.7407,-0.0177,0.4772,97414,2021-05-19 17:36:02:690
4.3059,-5.4326,-3.422,1.7837,-8.7451,-4.0634,0,0,0,-0.0142,0.5449,0.3282,98130,2021-05-19 17:36:03:406
4.3059,-5.4326,-3.422,1.7837,-8.7451,-4.0634,0,0,0,-0.0142,0.5449,0.3282,98131,2021-05-19 17:36:03:407
4.3059,-5.4326,-3.422,1.7837,-8.7451,-4.0634,0,0,0,-0.0142,0.5449,0.3282,98131,2021-05-19 17:36:03:407
4.3059,-5.4326,-3.422,1.7837,-8.7451,-4.0634,0,0,0,-0.0142,0.5449,0.3282,98132,2021-05-19 17:36:03:408
4.3059,-5.4326,-3.422,1.7837,-8.7451,-4.0634,0,0,0,-0.0142,0.5449,0.3282,98133,2021-05-19 17:36:03:409
4.3059,-5.4326,-3.422,1.7837,-8.7451,-4.0634,0,0,0,-0.0142,0.5449,0.3282,98133,2021-05-19 17:36:03:409
4.3059,-5.4326,-3.422,1.7837,-8.7451,-4.0634,0,0,0,-0.0142,0.5449,0.3282,98133,2021-05-19 17:36:03:409
4.3059,-5.4326,-3.422,1.7837,-8.7451,-4.0634,0,0,0,-0.0142,0.5449,0.3282,98133,2021-05-19 17:36:03:409
4.3059,-5.4326,-3.422,1.7837,-8.7451,-4.0634,0,0,0,-0.0142,0.5449,0.3282,98133,2021-05-19 17:36:03:409
2.9821,-10.0603,-3.6544,1.3275,-8.783,-4.1553,0,0,0,-0.3451,0.0863,-1.2738,98189,2021-05-19 17:36:03:465
4.6029,-11.0276,-3.099,4.8405,-8.4439,-1.2005,0.3852,0.3873,-0.3384,-2.8847,0.4933,0.2711,98689,2021-05-19 17:36:03:965
8.9384,-9.4307,-5.5193,4.1856,-8.6,-2.1657,5.2733,-1.3799,-4.9743,1.2247,1.7716,0.0857,99189,2021-05-19 17:36:04:465
4.7608,-9.3757,-0.3027,3.6598,-9.0962,-0.1859,-0.548,1.2307,1.0229,0.0244,0.2388,-0.1106,99689,2021-05-19 17:36:04:965
3.6571,-19.7016,-10.7671,3.8181,-8.0611,-4.0757,2.1978,-6.2306,-2.7273,-1.833,-0.5679,-1.0705,100192,2021-05-19 17:36:05:468
3.8797,-7.1898,-6.7618,4.503,-8.5778,-1.5212,3.1074,4.6484,-1.874,-1.5815,-0.3059,0.4905,100689,2021-05-19 17:36:05:965
3.9419,-8.9327,-2.8451,4.297,-7.42,-4.7591,-3.1279,-5.296,-1.7611,-1.5958,-0.0631,-0.4265,101188,2021-05-19 17:36:06:464
-1.6842,-10.8194,0.1762,4.1656,-8.7838,-1.2896,2.6874,-1.4646,-4.0034,-0.0073,2.159,-0.3441,101689,2021-05-19 17:36:06:965
5.12,-8.514,-1.3226,3.8059,-9.0375,0.0887,-0.0726,0.3915,-0.1102,0.1823,0.7755,0.2616,102189,2021-05-19 17:36:07:465
2.9557,-8.758,-3.4747,3.6913,-8.3366,-3.6119,0.033,0.1099,3.1854,-1.3156,0.0637,-0.2315,102689,2021-05-19 17:36:07:965
5.8765,-17.6474,-27.8228,3.9679,-8.5098,-2.83,-4.8416,0.6659,-5.5115,-0.3818,-0.9135,0.5501,103189,2021-05-19 17:36:08:465
1.0379,-13.6229,-4.7892,3.4643,-7.9968,-4.4966,-1.1646,-5.4644,-1.1626,-1.3503,-0.2619,0.0414,103688,2021-05-19 17:36:08:964
-9.5034,-20.3934,6.9897,4.8872,-7.7933,-3.3984,4.8173,-17.3484,-5.7796,-1.2348,1.2093,-2.1513,104188,2021-05-19 17:36:09:464
5.333,-16.783,-6.7211,3.485,-8.3187,-3.8503,1.9905,-1.5307,-2.4001,-0.4615,-0.7732,0.1084,104689,2021-05-19 17:36:09:965
18.3521,-14.9516,-11.665,4.3453,-8.7079,-1.2088,3.6603,-1.2888,-9.5685,-0.4365,1.0939,-0.8135,105190,2021-05-19 17:36:10:466
3.3314,-14.8726,-3.4938,4.0443,-8.0197,-3.9369,-1.2901,-6.305,0.8498,-0.3975,0.9818,0.3063,105690,2021-05-19 17:36:10:966
3.2213,-10.6445,-0.4702,3.7492,-8.9755,-1.2469,-0.333,-4.0551,0.3879,0.1162,2.818,-0.1599,106190,2021-05-19 17:36:11:466
3.1232,-9.8043,-3.3526,3.8128,-8.9716,1.0693,1.9778,1.4702,-0.6405,0.1813,1.1047,0.2485,106690,2021-05-19 17:36:11:966
0.0514,-5.0016,-3.3526,4.4165,-7.7644,-4.047,-5.5748,2.2054,2.2686,-1.0849,-1.2625,-0.3793,107189,2021-05-19 17:36:12:465
5.6779,-6.4573,1.8018,3.852,-9.0092,-0.4084,4.7653,0.0054,-0.9379,-0.5203,0.4279,1.0285,107689,2021-05-19 17:36:12:965
3.4008,-8.1954,-0.5492,4.8839,-8.3218,-1.751,0.1682,-0.568,-0.1065,-1.1513,-0.0052,-0.1871,108267,2021-05-19 17:36:13:543
4.7393,-11.2672,-3.2545,4.0161,-8.5158,-2.7426,1.3329,-1.7995,-2.1962,0.1313,0.9763,0.0907,108689,2021-05-19 17:36:13:965
3.8198,-8.6025,-2.0073,3.676,-9.0777,-0.5022,0.5914,0.1848,0.1968,-0.1213,0.3914,0.0886,109190,2021-05-19 17:36:14:466
4.8829,-20.7718,-9.0458,3.7566,-7.7371,-4.7111,4.0634,-1.0131,-0.4991,-1.4251,-0.8978,-0.3409,109690,2021-05-19 17:36:14:966
8.0719,-17.688,12.7116,4.1876,-8.109,-3.5886,-5.1469,-5.6808,-4.9941,-1.609,-0.2663,-0.2083,110189,2021-05-19 17:36:15:465
6.3051,-4.4871,-2.7709,4.7119,-7.6845,-3.8622,0.7397,-0.9584,2.3329,-1.1858,-1.078,-0.2784,110690,2021-05-19 17:36:15:966
8.0312,-4.2906,-0.5468,4.1349,-8.7514,-1.5767,1.8289,2.7433,0.5812,1.6795,1.098,-0.6322,111190,2021-05-19 17:36:16:466
-3.8506,0.8662,-1.1764,-0.5916,-6.0267,-7.7136,0,0,0,1.4421,1.3188,-0.8225,111974,2021-05-19 17:36:17:250
-3.8506,0.8662,-1.1764,-0.5916,-6.0267,-7.7136,0,0,0,1.4421,1.3188,-0.8225,111975,2021-05-19 17:36:17:251
-3.8506,0.8662,-1.1764,-0.5916,-6.0267,-7.7136,0,0,0,1.4421,1.3188,-0.8225,111976,2021-05-19 17:36:17:252
-3.8506,0.8662,-1.1764,-0.5916,-6.0267,-7.7136,0,0,0,1.4421,1.3188,-0.8225,111976,2021-05-19 17:36:17:252
-3.8506,0.8662,-1.1764,-0.5916,-6.0267,-7.7136,0,0,0,1.4421,1.3188,-0.8225,111977,2021-05-19 17:36:17:253
-3.8506,0.8662,-1.1764,-0.5916,-6.0267,-7.7136,0,0,0,1.4421,1.3188,-0.8225,111978,2021-05-19 17:36:17:254
-3.8506,0.8662,-1.1764,-0.5916,-6.0267,-7.7136,0,0,0,1.4421,1.3188,-0.8225,111979,2021-05-19 17:36:17:255
-3.8506,0.8662,-1.1764,-0.5916,-6.0267,-7.7136,0,0,0,1.4421,1.3188,-0.8225,111980,2021-05-19 17:36:17:256
-3.8506,0.8662,-1.1764,-0.5916,-6.0267,-7.7136,0,0,0,1.4421,1.3188,-0.8225,111980,2021-05-19 17:36:17:256
2.0435,-8.6312,-2.6847,5.175,-8.33,0.0025,0.121,1.2548,-1.5505,-0.099,1.7481,-0.2559,112188,2021-05-19 17:36:17:464
2.7305,-8.8753,-2.0312,6.0099,-7.6952,-0.9141,0,0,0,-1.3979,-0.7672,-0.4558,112689,2021-05-19 17:36:17:965
4.7776,-5.2914,-2.3638,4.0895,-8.3376,-3.1515,0.6011,2.744,0.3238,0.073,0.3583,-0.3518,113188,2021-05-19 17:36:18:464
4.9355,-2.2558,0.0326,4.3792,-8.3745,-2.6193,-7.5495,3.4121,-0.3089,0.3033,-0.0557,0.83,113689,2021-05-19 17:36:18:965
1.7731,-6.4478,0.4226,3.4789,-8.7409,-2.7684,-4.5305,5.6781,2.5955,1.1927,0.5904,0.4667,114189,2021-05-19 17:36:19:465
7.4399,-6.6631,7.4207,4.4613,-8.1984,-3.009,-0.1826,3.1527,10.9297,0.002,0.4665,-0.2715,114688,2021-05-19 17:36:19:964
3.9419,-10.9534,6.8677,1.5554,-9.5252,-1.7381,-5.1575,7.1051,0.7596,1.6325,0.525,-0.8138,115188,2021-05-19 17:36:20:464
11.5552,-15.6888,-8.3204,4.0406,-7.7116,-4.5139,4.7034,-12.3836,-2.604,-1.2134,0.2405,0.1712,115689,2021-05-19 17:36:20:965
3.76,-6.8501,5.6874,3.1771,-9.0284,-2.1363,-5.4038,-6.0206,-0.7134,-0.1608,2.2814,-0.0076,116189,2021-05-19 17:36:21:465
4.3633,-8.9614,-1.0496,3.4473,-9.1748,-0.3324,1.3329,1.4492,1.4963,0.0183,0.8746,0.1884,116917,2021-05-19 17:36:22:193
4.3633,-8.9614,-1.0496,3.4473,-9.1748,-0.3324,1.3329,1.4492,1.4963,0.0183,0.8746,0.1884,116917,2021-05-19 17:36:22:193
1.1049,-8.9761,-4.3271,1.1431,-9.7336,-0.3481,-1.5457,0.6943,4.5738,-0.1153,1.4778,1.676,117143,2021-05-19 17:36:22:419
5.4718,-6.9529,-1.4518,5.8925,-7.7816,-0.9465,0.5705,-0.3847,-0.1674,-0.0973,-0.1778,0.1602,117646,2021-05-19 17:36:22:922
7.107,-2.0043,-2.455,5.2883,-8.1121,-1.5483,0.0113,4.0266,-1.6494,0.2808,0.6828,0.8101,118145,2021-05-19 17:36:23:421
0.8632,-0.6685,1.8209,6.6746,-7.0878,1.176,1.1829,0.8462,-0.2507,-0.4768,0.9074,-1.7557,118643,2021-05-19 17:36:23:919
8.2537,-3.9963,-0.6832,8.427,-3.9665,3.0695,-1.2125,0.05,-0.2233,-0.593,1.4143,-1.649,119143,2021-05-19 17:36:24:419
0.0467,4.1043,9.7633,1.9407,3.2301,9.0538,-0.9485,-4.4105,-1.4693,0.9328,-0.1594,0.2271,119643,2021-05-19 17:36:24:919
-0.4834,4.3029,6.6535,0.0099,5.2271,8.2975,-1.0408,-0.5497,0.0649,0.6397,-0.0319,-0.2535,120143,2021-05-19 17:36:25:419
-0.7361,3.6541,6.2847,0.2052,4.6704,8.6206,-1.248,-1.7382,-1.7039,-0.5919,-2.2284,-1.379,120643,2021-05-19 17:36:25:919
-4.2661,3.4639,5.6145,-2.8864,4.6347,8.1461,-0.0059,-1.3745,0.6376,0.2295,0.2285,0.017,121143,2021-05-19 17:36:26:419
-1.9654,3.7439,10.1178,0.0836,1.8555,9.6292,-4.1691,1.7912,-0.2045,-1.7197,-1.8286,-0.4271,121643,2021-05-19 17:36:26:919
0.1618,4.8858,7.9606,1.5112,3.0291,9.2039,3.7151,-1.7999,5.1904,1.8842,0.093,-0.1771,122143,2021-05-19 17:36:27:419
2.8792,8.222,4.7489,2.285,8.263,4.7615,-0.397,-1.1934,-0.9748,0.6878,0.3971,0.131,122644,2021-05-19 17:36:27:920
0.6251,6.8192,6.8641,0.1008,6.7908,7.0743,0.1869,0.3128,-0.206,0.161,0.496,-0.0794,123143,2021-05-19 17:36:28:419
-3.7035,6.2901,8.0408,0.8264,5.6486,7.9738,-3.0226,-0.5946,-4.7543,0.606,-0.4511,-0.5517,123643,2021-05-19 17:36:28:919
-5.8941,5.3647,7.9355,-4.3468,5.7146,6.6798,-0.7105,-0.0643,-0.5024,0.2957,0.5714,-0.2004,124143,2021-05-19 17:36:29:419
-3.0176,2.3028,9.0703,-2.7441,1.3682,9.315,-0.6148,1.6965,-2.0421,-2.1607,-1.0653,0.3729,17,2021-05-19 17:21:35:636
3.9048,1.363,4.1623,7.3759,0.7389,6.4203,-1.4152,0.7465,0.8886,1.5804,-2.1607,0.8743,517,2021-05-19 17:21:36:136
5.412,-8.193,-8.2941,9.5096,-1.3415,-1.9847,-1.3185,-6.7562,-5.3641,1.7794,-0.8743,0.4241,1020,2021-05-19 17:21:36:639
8.5771,2.8941,-5.8164,8.7456,-4.3508,0.8695,2.6981,-0.6906,-5.1855,1.7551,0.0548,-1.1401,1517,2021-05-19 17:21:37:136
3.0347,-1.8057,-1.0208,6.9134,-6.8693,1.09,3.8084,2.6965,0.292,1.4097,0.7503,0.6322,2018,2021-05-19 17:21:37:637
7.1644,-8.2911,-4.0277,5.3717,-7.9656,-1.9659,0.1862,4.2016,0.2617,1.415,-0.1486,-0.6765,2518,2021-05-19 17:21:38:137
5.2612,-3.2468,-2.9722,8.9183,-1.9697,-3.5713,0,0,0,-0.0647,0.2393,0.1526,3018,2021-05-19 17:21:38:637
2.8816,-11.5304,-7.6334,1.2761,-8.1946,-5.2336,2.2951,-7.9319,-4.1903,0.6661,1.6801,0.283,3518,2021-05-19 17:21:39:137
-0.0251,-7.9394,1.3421,0.223,-9.6832,-1.5351,3.0015,0.3704,0.0464,1.0797,1.038,-0.4522,4050,2021-05-19 17:21:39:669
-0.0251,-7.9394,1.3421,0.223,-9.6832,-1.5351,3.0015,0.3704,0.0464,1.0797,1.038,-0.4522,4051,2021-05-19 17:21:39:670
-0.0251,-7.9394,1.3421,0.223,-9.6832,-1.5351,3.0015,0.3704,0.0464,1.0797,1.038,-0.4522,4051,2021-05-19 17:21:39:670
-4.1572,-7.2473,-13.3911,0.4207,-9.7873,-0.4487,2.158,-5.8366,0.0038,2.0674,-1.4405,-0.201,4289,2021-05-19 17:21:39:908
1.3516,-16.9101,-4.7868,0.3673,-8.8528,-4.2027,1.7261,-2.829,-1.5496,-0.744,-0.6701,0.1536,4788,2021-05-19 17:21:40:407
-1.9092,-10.4865,-16.6185,0.3076,-9.6675,-1.6171,0.1741,-0.3813,-1.074,0.3074,0.5612,-0.1431,5288,2021-05-19 17:21:40:907
1.9238,-9.4379,-1.2843,0.5554,-9.7192,-1.183,1.4172,-0.2477,-1.0313,0.4926,0.4004,0.2398,5788,2021-05-19 17:21:41:407
-0.3793,-9.8761,-2.1796,0.0693,-9.6977,-1.4561,-0.4802,-0.2862,0.5856,-1.1963,0.1367,-0.0067,6288,2021-05-19 17:21:41:907
0.6957,-9.0838,-1.8036,-0.3826,-9.5861,-2.0325,0.6549,-2.4271,0.014,0.1545,-0.5528,-0.1807,6788,2021-05-19 17:21:42:407
-1.0089,-9.6775,-1.6983,0.1359,-9.2859,-3.1502,1.5608,2.231,1.9308,0.7297,-0.1781,1.1293,7289,2021-05-19 17:21:42:908
0.1499,-8.4709,-2.3375,0.0224,-9.6752,-1.6,1.065,-0.7957,-1.2778,-1.1183,0.1749,-0.2924,7789,2021-05-19 17:21:43:408
0.8177,-9.5985,-1.3992,-0.1217,-9.7563,-0.9846,-0.3567,0.7085,-0.6683,1.1805,0.1614,0.0779,8288,2021-05-19 17:21:43:907
-0.2572,-10.1157,-1.5978,0.2462,-9.5435,-2.2429,-0.1712,1.0733,0.6972,-1.2557,0.2011,-0.2376,8788,2021-05-19 17:21:44:407
0.3173,-9.4475,-0.3888,-0.2129,-9.7893,-0.542,1.6419,-0.8205,-0.5731,0.6669,0.0863,0.3572,9288,2021-05-19 17:21:44:907
-0.3075,-7.5562,-1.04,-0.3741,-9.1384,-3.5383,0.4414,-1.4122,-1.0286,-1.4479,-0.3439,0.5046,9789,2021-05-19 17:21:45:408
1.5479,-10.7429,-1.8733,-0.315,-9.7998,-0.1848,-0.0326,-0.1413,-1.4985,0.2089,-0.1689,-0.0678,10289,2021-05-19 17:21:45:908
-0.9443,-6.6823,-2.4981,-0.0182,-9.0461,-3.7865,0.919,-3.2993,-0.7271,-1.1837,-0.6112,-0.0928,10788,2021-05-19 17:21:46:407
1.1408,-9.7899,-0.4439,-0.1696,-9.8023,-0.2362,1.4656,0.0816,-0.0988,-0.3989,0.2643,-0.0614,11289,2021-05-19 17:21:46:908
-1.2173,-7.2544,-2.4909,0.243,-8.9565,-3.9865,-0.811,-0.9469,-0.4922,-0.6974,-0.2576,-1.0803,11788,2021-05-19 17:21:47:407
-3.8868,-6.3329,-2.4407,-0.1481,-9.5427,-2.2549,-1.7695,-4.1152,-0.4607,0.8164,-0.2821,0.4545,12288,2021-05-19 17:21:47:907
-2.8047,-11.9351,-6.9176,0.1755,-9.0884,-3.6798,-3.0591,-2.5341,-2.0026,-1.4705,-0.6342,-0.514,12788,2021-05-19 17:21:48:407
-2.5125,-10.0603,-12.1319,0.1213,-9.4796,-2.5085,-2.4403,0.2333,-10.654,0.1918,0.0373,-0.1976,13288,2021-05-19 17:21:48:907
-1.1958,-9.8115,-1.6313,-0.2743,-8.6325,-4.6449,3.8051,-7.1535,-2.9212,-1.7617,-0.3124,0.128,13789,2021-05-19 17:21:49:408
2.5271,-5.2484,3.8991,0.2573,-9.5351,-2.2772,-5.9106,1.2594,-11.4844,-0.6644,0.7883,-0.3195,14291,2021-05-19 17:21:49:910
-3.8868,-13.4722,-3.731,0.0466,-8.7301,-4.4669,-1.5239,-9.873,-2.2752,-1.353,-1.0791,-0.1941,14789,2021-05-19 17:21:50:408
-6.1181,-7.7596,-4.0181,-0.1859,-9.7219,-1.2729,0.479,-3.0454,2.9287,-0.3951,1.1067,0.4268,15288,2021-05-19 17:21:50:907
-3.3096,-14.1592,0.7771,2.5371,-9.1844,-2.3194,0,0,0,-2.6751,0.0672,-1.0297,15789,2021-05-19 17:21:51:408
-1.9331,-0.8886,0.7747,-1.1611,-9.7366,-0.1407,-0.1486,7.3015,-0.2359,0.5504,-1.0566,0.6041,16412,2021-05-19 17:21:52:031
-1.9331,-0.8886,0.7747,-1.1611,-9.7366,-0.1407,-0.1486,7.3015,-0.2359,0.5504,-1.0566,0.6041,16413,2021-05-19 17:21:52:032
-1.1432,-5.313,-1.7844,-0.5099,-9.6401,-1.7259,0,0,0,-1.2736,-0.9453,-0.587,16875,2021-05-19 17:21:52:494
3.7409,-13.721,-7.0923,3.4028,-8.5921,-3.2813,1.0266,-0.1366,-0.2322,-1.2736,-0.9453,-0.587,17207,2021-05-19 17:21:52:826
3.7409,-13.721,-7.0923,3.4028,-8.5921,-3.2813,1.0266,-0.1366,-0.2322,-1.2736,-0.9453,-0.587,17208,2021-05-19 17:21:52:827
-0.6906,-21.6287,-7.5903,2.0493,-8.156,-5.0449,0,0,0,-2.9347,-1.3074,0.3306,17599,2021-05-19 17:21:53:218
-0.6906,-21.6287,-7.5903,2.0493,-8.156,-5.0449,0,0,0,-2.9347,-1.3074,0.3306,17600,2021-05-19 17:21:53:219
-0.6906,-21.6287,-7.5903,2.0493,-8.156,-5.0449,0,0,0,-2.9347,-1.3074,0.3306,17604,2021-05-19 17:21:53:223
-0.6906,-21.6287,-7.5903,2.0493,-8.156,-5.0449,0,0,0,-2.9347,-1.3074,0.3306,17604,2021-05-19 17:21:53:223
4.1695,-7.1037,-2.4957,3.7755,-8.4824,-3.1568,0,0,0,-0.2347,0.135,0.4198,17667,2021-05-19 17:21:53:286
-1.2437,-7.1372,-0.1567,-0.9041,-9.7648,-0.0512,1.0502,1.4702,0.3808,2.0766,0.9615,-0.6477,18209,2021-05-19 17:21:53:828
-1.2437,-7.1372,-0.1567,-0.9041,-9.7648,-0.0512,1.0502,1.4702,0.3808,2.0766,0.9615,-0.6477,18210,2021-05-19 17:21:53:829
2.6922,-11.3701,-8.7658,-2.2726,-9.3008,-2.1216,1.0526,-1.258,-0.8892,0.5649,0.8028,-0.7216,18503,2021-05-19 17:21:54:122
3.7744,-9.7325,-2.8068,-1.0509,-9.7151,0.8267,0.2137,0.6796,-0.9878,0.44,0.8521,-0.0557,18985,2021-05-19 17:21:54:604
-1.4901,-6.3377,-3.044,-0.0975,-9.1939,-3.4108,-1.6381,2.8447,2.2914,-0.5591,-0.4062,0.0794,19485,2021-05-19 17:21:55:104
1.5933,-9.8282,-3.7023,-0.3919,-9.7766,-0.6598,0.7546,1.1569,0.2728,1.0044,-0.1426,0.1619,19984,2021-05-19 17:21:55:603
-0.0945,-2.1287,-1.0017,-0.3569,-9.3351,-2.9832,-1.282,7.3983,1.7883,1.6872,0.3144,1.3733,20484,2021-05-19 17:21:56:103
0.1738,-14.0178,-6.4149,-0.5213,-9.144,-3.5051,3.3213,1.7988,0.9345,0.1816,0.17,0.7066,20984,2021-05-19 17:21:56:603
-8.371,-17.135,14.1362,-0.3303,-9.6022,-1.9643,-4.9068,3.5068,-0.3184,0.9839,0.6098,-0.5438,21484,2021-05-19 17:21:57:103
-1.3418,-14.6189,-2.5627,-0.5607,-8.2742,-5.2338,1.3781,-10.2152,-0.1252,-2.2126,-0.1894,-0.0389,21984,2021-05-19 17:21:57:603
-0.6117,-13.477,-4.241,0.1465,-9.6297,-1.8486,1.9913,3.0628,5.2419,-0.1701,0.4983,0.7243,22484,2021-05-19 17:21:58:103
5.2636,-6.3855,-6.0676,-0.0315,-9.3346,-3.0058,-1.1927,6.1857,1.9092,1.9576,0.5646,0.4978,22985,2021-05-19 17:21:58:604
0.4753,-8.8753,-1.8517,-0.5757,-9.7873,-0.2204,3.0266,0.1036,-1.4824,0.5288,0.6664,0.122,23484,2021-05-19 17:21:59:103
-2.5771,-8.5762,-2.2825,-0.5293,-9.0488,-3.743,-1.924,0.3663,0.7833,0.1559,0.4693,0.4591,23984,2021-05-19 17:21:59:603
-1.3155,-9.2393,-2.7733,-0.1381,-9.6449,-1.7683,0.6485,-1.721,-1.307,0.3839,-0.093,0.3948,24485,2021-05-19 17:22:00:104
1.4019,-9.9215,0.3245,-0.3492,-9.7663,0.8168,1.8601,0.2725,-1.1029,0.5232,0.4934,0.1736,24984,2021-05-19 17:22:00:603
-5.3423,-5.7918,-2.9722,0.2008,-8.6982,-4.5246,-0.0443,-0.3784,2.4167,-1.2225,-0.9297,-0.4407,25484,2021-05-19 17:22:01:103
-0.5013,-16.9029,1.4904,0.2683,-9.4179,-2.7206,-2.8198,1.4572,-2.0606,-1.2252,1.2435,0.1687,25985,2021-05-19 17:22:01:604
2.7162,-8.6192,-6.8384,0.3486,-9.0977,-3.6443,4.5509,1.5601,0.9085,-0.6951,0.9676,0.5832,26485,2021-05-19 17:22:02:104
0.3748,-5.9785,-3.0488,0.3142,-8.5492,-4.794,0.2303,1.7876,2.6219,0.0064,-0.4105,0.314,27257,2021-05-19 17:22:02:876
0.3748,-5.9785,-3.0488,0.3142,-8.5492,-4.794,0.2303,1.7876,2.6219,0.0064,-0.4105,0.314,27258,2021-05-19 17:22:02:877
0.3748,-5.9785,-3.0488,0.3142,-8.5492,-4.794,0.2303,1.7876,2.6219,0.0064,-0.4105,0.314,27258,2021-05-19 17:22:02:877
0.3748,-5.9785,-3.0488,0.3142,-8.5492,-4.794,0.2303,1.7876,2.6219,0.0064,-0.4105,0.314,27258,2021-05-19 17:22:02:877
0.3748,-5.9785,-3.0488,0.3142,-8.5492,-4.794,0.2303,1.7876,2.6219,0.0064,-0.4105,0.314,27258,2021-05-19 17:22:02:877
0.3748,-5.9785,-3.0488,0.3142,-8.5492,-4.794,0.2303,1.7876,2.6219,0.0064,-0.4105,0.314,27258,2021-05-19 17:22:02:877
0.3748,-5.9785,-3.0488,0.3142,-8.5492,-4.794,0.2303,1.7876,2.6219,0.0064,-0.4105,0.314,27259,2021-05-19 17:22:02:878
0.3748,-5.9785,-3.0488,0.3142,-8.5492,-4.794,0.2303,1.7876,2.6219,0.0064,-0.4105,0.314,27259,2021-05-19 17:22:02:878
0.3748,-5.9785,-3.0488,0.3142,-8.5492,-4.794,0.2303,1.7876,2.6219,0.0064,-0.4105,0.314,27259,2021-05-19 17:22:02:878
0.3748,-5.9785,-3.0488,0.3142,-8.5492,-4.794,0.2303,1.7876,2.6219,0.0064,-0.4105,0.314,27259,2021-05-19 17:22:02:878
0.3748,-5.9785,-3.0488,0.3142,-8.5492,-4.794,0.2303,1.7876,2.6219,0.0064,-0.4105,0.314,27259,2021-05-19 17:22:02:878
0.3748,-5.9785,-3.0488,0.3142,-8.5492,-4.794,0.2303,1.7876,2.6219,0.0064,-0.4105,0.314,27260,2021-05-19 17:22:02:879
0.3748,-5.9785,-3.0488,0.3142,-8.5492,-4.794,0.2303,1.7876,2.6219,0.0064,-0.4105,0.314,27260,2021-05-19 17:22:02:879
0.3748,-5.9785,-3.0488,0.3142,-8.5492,-4.794,0.2303,1.7876,2.6219,0.0064,-0.4105,0.314,27260,2021-05-19 17:22:02:879
2.7138,-10.1994,1.6319,0.2995,-9.7804,-0.6508,-1.6634,1.1435,-0.5793,0.5589,-0.5963,0.4699,27393,2021-05-19 17:22:03:012
0.4346,-12.8686,-0.0511,1.1122,-9.6798,-1.1115,-0.7981,-1.2635,-0.1863,-2.3365,0.8466,-0.1374,27892,2021-05-19 17:22:03:511
4.1862,-9.955,-5.4571,1.9557,-9.1336,-2.9871,1.347,-0.4241,-1.2337,1.0934,1.1163,0.1819,28393,2021-05-19 17:22:04:012
1.7635,-10.0795,0.7555,0.1291,-9.7844,-0.648,-0.8504,0.7923,1.0157,0.2243,0.8405,0.1306,28893,2021-05-19 17:22:04:512
-0.2812,-11.6309,2.2543,-0.7398,-9.321,-2.9568,-3.205,0.3157,2.9145,-2.6288,0.6849,0.1744,29393,2021-05-19 17:22:05:012
-2.6584,-7.6567,-5.9456,-0.1822,-9.7744,-0.7733,-0.4717,1.1214,-0.1756,1.3651,-1.0826,0.1484,29892,2021-05-19 17:22:05:511
3.0371,-5.7464,-2.7517,-0.1267,-9.6512,-1.7344,1.029,3.3847,-1.1954,-0.4737,0.3286,0.3147,30392,2021-05-19 17:22:06:011
-1.9259,-1.9947,-1.5045,-5.5585,-7.4317,-3.1692,0,0,0,0.2532,-1.1615,0.1269,30893,2021-05-19 17:22:06:512
2.4601,-6.7854,-2.6225,0.2755,-9.3943,-2.8004,-3.7001,-2.4233,1.2027,0.2237,-0.0232,0.2674,31395,2021-05-19 17:22:07:014
-1.3633,-4.7886,-2.7182,0.045,-8.6572,-4.6067,-1.1909,3.761,1.7018,0.3419,0.1585,0.631,31892,2021-05-19 17:22:07:511
-3.7645,-8.9689,-1.806,0.6849,-9.4042,-2.6948,4.7662,-3.1057,5.0278,-0.6593,2.249,-0.3509,32392,2021-05-19 17:22:08:011
0.1427,-10.0125,-2.6201,1.1427,-8.7075,-4.364,-2.5181,-9.8493,-2.0674,-0.6892,0.9054,-0.1704,32892,2021-05-19 17:22:08:511
0.1905,-14.4416,8.8283,-0.1973,-9.6697,-1.621,-6.7533,5.13,-0.626,-0.2843,0.766,0.7257,33393,2021-05-19 17:22:09:012
1.4139,-10.0723,-4.0301,-0.3204,-9.801,0.0898,1.9943,-0.1264,-1.7026,0.1008,0.3694,0.0053,33893,2021-05-19 17:22:09:512
2.2708,-9.3757,-2.4048,-0.0836,-9.5949,-2.0254,-1.0521,4.1135,1.4517,0.6968,0.5898,0.3709,34392,2021-05-19 17:22:10:011
0.2001,-9.8689,-2.4,-0.505,-9.7447,-0.9773,0.6303,0.033,-1.3377,-0.0678,-0.3712,0.1113,34893,2021-05-19 17:22:10:512
-3.7621,-10.6711,-3.3981,0.7087,-8.3466,-5.0993,-3.812,-1.6322,1.651,-0.0834,-0.6787,0.3086,35396,2021-05-19 17:22:11:015
-9.1226,-17.7957,-6.5417,0.4146,-9.4325,-2.6509,-7.1437,-1.9058,-5.1334,-1.4671,1.5344,0.8158,35892,2021-05-19 17:22:11:511
-3.9084,-16.424,-5.1194,0.2481,-8.9389,-4.0255,2.9445,0.2356,-1.2387,-2.0398,0.5841,-0.0699,36393,2021-05-19 17:22:12:012
-1.2293,-18.6721,-6.6374,0.7949,-9.7477,-0.7221,-3.9923,-2.5853,1.178,1.04,1.581,0.064,36892,2021-05-19 17:22:12:511
1.5215,-9.4594,-0.542,-0.1443,-9.7988,0.3646,0.5622,0.0374,-1.4853,0.4082,0.4536,0.1032,37393,2021-05-19 17:22:13:012
-0.0371,-8.7174,-2.8546,0.2052,-8.9011,-4.1108,-1.6635,-1.5242,5.1972,-1.1179,0.2706,0.0089,37893,2021-05-19 17:22:13:512
0.3173,-12.1098,-0.0105,0.9787,-9.1567,-3.3715,-6.43,-3.0477,-5.8667,-1.0606,1.0022,-1.0505,38393,2021-05-19 17:22:14:012
-2.898,-10.3956,-4.0445,0.3523,-8.7958,-4.3221,-2.96,-4.587,-0.4989,-0.2627,-0.4291,-0.0803,38893,2021-05-19 17:22:14:512
-1.4112,-15.5764,4.9502,-2.0812,-5.9609,-7.5038,0,0,0,0.8161,-0.3633,-0.2489,39393,2021-05-19 17:22:15:012
1.8377,-14.6764,-7.6358,0.3396,-9.0663,-3.7225,2.022,0.3416,-1.1753,-1.2722,-0.9745,-0.3599,39892,2021-05-19 17:22:15:511
-3.9945,-10.6615,-2.8235,-0.1101,-9.5119,-2.3838,-5.7067,-6.4086,4.1988,-1.2539,1.029,0.2734,40392,2021-05-19 17:22:16:011
-1.0137,-17.5756,-5.5935,0.2186,-8.7957,-4.3311,-3.189,-10.5359,-1.1315,-0.4887,1.4393,-0.1326,40892,2021-05-19 17:22:16:511
0.4968,-21.0111,-3.4747,0.0039,-9.5204,-2.3522,-7.1707,0.8605,0.3674,-1.2365,0.0922,1.6365,41392,2021-05-19 17:22:17:011
-2.8908,-12.172,-0.7481,-0.0328,-9.8066,-0.0196,2.4798,1.355,1.2244,-1.0675,0.4209,-0.3221,41895,2021-05-19 17:22:17:514
-3.9467,-8.3868,-4.351,0.7855,-9.5424,-2.1203,3.9784,-1.671,-5.3752,0.9734,0.3838,-0.6874,42393,2021-05-19 17:22:18:012
-0.4343,-9.0885,0.2384,0.2312,-9.8037,0.0636,0.0482,0.2843,0.0817,0.3296,1.1467,0.0962,42893,2021-05-19 17:22:18:512
2.2636,-11.6381,0.8465,0.8691,-9.2405,-3.1668,-3.7929,-2.894,3.937,-2.209,1.7209,-0.2068,43392,2021-05-19 17:22:19:011
0.6021,-8.3342,-3.9129,-0.0534,-9.6456,-1.7693,-1.6189,-2.4373,1.5107,0.3465,0.2679,0.9534,43893,2021-05-19 17:22:19:512
0.9446,-9.8258,-4.5305,0.0552,-9.7994,-0.3741,2.3805,0.1441,-3.3159,-0.4247,0.6014,-0.233,44393,2021-05-19 17:22:20:012
4.1216,-14.5253,-7.5927,-0.0816,-9.6259,-1.8725,-0.2346,2.4172,-0.6766,0.5594,0.706,-0.4676,44892,2021-05-19 17:22:20:511
-1.0256,-9.1579,0.4445,1.00E-04,-9.8005,-0.3475,-0.5112,0.7366,-0.2665,0.0826,0.3254,0.0159,45395,2021-05-19 17:22:21:014
-1.4638,-6.5459,-1.3537,0.0719,-9.6958,-1.4684,0.1551,1.6703,-0.6974,-0.2277,0.3135,-0.1081,45989,2021-05-19 17:22:21:608
-1.4638,-6.5459,-1.3537,0.0719,-9.6958,-1.4684,0.1551,1.6703,-0.6974,-0.2277,0.3135,-0.1081,45990,2021-05-19 17:22:21:609
-1.4638,-6.5459,-1.3537,0.0719,-9.6958,-1.4684,0.1551,1.6703,-0.6974,-0.2277,0.3135,-0.1081,45990,2021-05-19 17:22:21:609
0.7388,-8.9423,2.3764,-0.8098,-9.5559,-2.0494,0,0,0,-1.4683,-0.0579,0.1385,46474,2021-05-19 17:22:22:093
0.1977,-5.8325,-1.6265,0.6343,-9.507,-2.3204,-2.0709,4.9017,-0.1,-0.4033,0.4545,0.2242,46789,2021-05-19 17:22:22:408
1.3923,-4.3768,-1.4136,0.8013,-9.6885,-1.2889,3.0113,0.8007,0.8022,1.6606,0.8265,0.7936,47290,2021-05-19 17:22:22:909
3.1232,-9.3589,1.0071,9.00E-04,-9.7932,0.5126,3.4902,0.5872,-0.3156,0.8859,1.2467,0.5172,47789,2021-05-19 17:22:23:408
-1.8398,-9.7181,-1.9786,-0.3791,-9.4785,-2.4869,-1.9837,-0.3286,4.1338,-1.0899,0.0374,0.4073,48289,2021-05-19 17:22:23:908
-3.2043,-12.5695,0.6455,-0.3154,-9.7068,-1.3594,-2.0153,-2.1948,1.6397,0.4245,0.0854,0.389,48790,2021-05-19 17:22:24:409
-3.6975,-3.7974,2.5917,-0.0907,-9.6166,-1.9192,0.4117,2.2715,-2.0546,-0.0924,0.5278,-0.0927,49289,2021-05-19 17:22:24:908
2.2947,-4.2452,-1.5404,-0.3992,-8.9555,-3.9761,-3.302,5.5575,1.0881,1.7841,0.7352,1.2606,49789,2021-05-19 17:22:25:408
1.3038,-6.7711,-1.5021,0.3166,-9.6081,-1.9378,-0.4412,1.4916,-0.92,0.1863,0.7651,0.3404,50289,2021-05-19 17:22:25:908
-1.6436,-3.7137,-0.9586,-0.431,-9.0595,-3.7297,-1.1375,5.1018,2.8861,0.7222,0.2147,1.1745,50789,2021-05-19 17:22:26:408
6.8079,-10.9869,-3.3718,3.4889,-9.0744,1.2855,0,0,0,0.7045,0.3095,0.1665,51289,2021-05-19 17:22:26:908
-0.3027,-10.2209,-0.9203,0.8026,-9.2294,-3.2164,-3.6817,-2.8865,2.57,-1.8544,0.9291,-0.0961,51790,2021-05-19 17:22:27:409
-2.0408,-8.5666,-10.2117,0.4996,-9.5009,-2.3777,2.7882,0.936,-0.3728,1.1931,0.2514,-0.463,52292,2021-05-19 17:22:27:911
1.0307,-7.6448,-2.0527,0.245,-9.5006,-2.4187,1.4554,1.4118,-1.1429,-0.4168,0.2214,0.3517,53049,2021-05-19 17:22:28:668
1.0307,-7.6448,-2.0527,0.245,-9.5006,-2.4187,1.4554,1.4118,-1.1429,-0.4168,0.2214,0.3517,53050,2021-05-19 17:22:28:669
1.0307,-7.6448,-2.0527,0.245,-9.5006,-2.4187,1.4554,1.4118,-1.1429,-0.4168,0.2214,0.3517,53050,2021-05-19 17:22:28:669
1.0307,-7.6448,-2.0527,0.245,-9.5006,-2.4187,1.4554,1.4118,-1.1429,-0.4168,0.2214,0.3517,53050,2021-05-19 17:22:28:669
1.4234,-5.9186,-1.5811,1.6067,-9.3261,-2.5717,0,0,0,-0.0235,0.4065,0.5481,53507,2021-05-19 17:22:29:126
-0.3314,-9.2919,4.9382,2.0083,-9.5062,1.3305,0,0,0,-0.4887,0.8509,-0.3464,53900,2021-05-19 17:22:29:519
-2.3904,-8.0758,0.6455,0.7459,-9.2766,3.0916,-0.03,-2.3103,-1.7466,-0.0399,-0.0829,0.0374,54373,2021-05-19 17:22:29:992
-2.9483,-11.3868,3.8465,-1.5931,-9.2455,-2.8554,-3.5533,-1.3137,0.4865,-3.0235,1.6314,0.3054,54553,2021-05-19 17:22:30:172
-2.0695,-8.904,-0.5563,1.9507,-9.5993,-0.4676,0.2046,1.1648,-2.6022,-0.9186,1.2419,0.3657,55289,2021-05-19 17:22:30:908
-2.0695,-8.904,-0.5563,1.9507,-9.5993,-0.4676,0.2046,1.1648,-2.6022,-0.9186,1.2419,0.3657,55290,2021-05-19 17:22:30:909
-2.0695,-8.904,-0.5563,1.9507,-9.5993,-0.4676,0.2046,1.1648,-2.6022,-0.9186,1.2419,0.3657,55290,2021-05-19 17:22:30:909
2.2828,-9.6512,0.9805,-3.6874,-9.0565,-0.744,0,0,0,0.3242,1.1091,-0.0072,55681,2021-05-19 17:22:31:300
2.2828,-9.6512,0.9805,-3.6874,-9.0565,-0.744,0,0,0,0.3242,1.1091,-0.0072,55681,2021-05-19 17:22:31:300
2.2828,-9.6512,0.9805,-3.6874,-9.0565,-0.744,0,0,0,0.3242,1.1091,-0.0072,55682,2021-05-19 17:22:31:301
2.2828,-9.6512,0.9805,-3.6874,-9.0565,-0.744,0,0,0,0.3242,1.1091,-0.0072,55682,2021-05-19 17:22:31:301
2.2828,-9.6512,0.9805,-3.6874,-9.0565,-0.744,0,0,0,0.3242,1.1091,-0.0072,55682,2021-05-19 17:22:31:301
2.2828,-9.6512,0.9805,-3.6874,-9.0565,-0.744,0,0,0,0.3242,1.1091,-0.0072,55682,2021-05-19 17:22:31:301
3.1543,-9.9742,-0.0272,-0.1991,-9.8027,-0.194,0,0,0,-0.5568,0.7294,-0.182,56131,2021-05-19 17:22:31:750
3.1543,-9.9742,-0.0272,-0.1991,-9.8027,-0.194,0,0,0,-0.5568,0.7294,-0.182,56132,2021-05-19 17:22:31:751
6.1493,-14.6285,-0.5252,1.2941,-8.5826,-4.5644,0,0,0,2.6127,0.4229,-0.2335,56636,2021-05-19 17:22:32:255
0.291,-9.979,-0.3984,-0.3729,-9.7904,-0.4235,0.7345,-0.1938,0.1439,-0.2698,0.3097,-0.0869,56842,2021-05-19 17:22:32:461
1.9502,-7.9729,-2.8116,0.6308,-9.535,-2.2036,0.5552,-0.0104,0.349,-0.2462,0.104,-0.0829,57340,2021-05-19 17:22:32:959
-1.5523,-5.6507,-2.2825,-3.4238,-8.4716,-3.5608,0.5847,1.3153,-0.056,0.6225,0.7458,0.7214,57840,2021-05-19 17:22:33:459
3.4442,-8.5331,0.8345,0.715,-9.4811,-2.4017,-0.7099,-3.1459,1.7609,0.2947,1.2632,-0.0197,58340,2021-05-19 17:22:33:959
0.315,-9.7349,-2.5388,0.4612,-9.1477,-3.5039,-6.9012,-0.5074,0.5992,-1.4628,1.1576,-0.4934,58840,2021-05-19 17:22:34:459
3.6308,-9.8521,2.0602,-0.8406,-9.6679,-1.4124,-7.8519,0.7141,-0.1799,0.1863,0.2955,0.8778,59340,2021-05-19 17:22:34:959
3.1567,-9.7469,-2.1987,-0.2896,-9.7812,0.6436,1.3684,1.0305,-1.6249,0.5125,0.4319,0.2579,59839,2021-05-19 17:22:35:458
-2.2134,-4.384,-0.676,-1.6348,-9.3537,-2.4509,0,0,0,0.8399,0.6409,0.8903,60342,2021-05-19 17:22:35:961
0.8225,-6.2204,-4.9161,0.4305,-9.0877,-3.6603,-1.0494,0.0869,-0.6549,-0.2042,1.3266,0.4474,60839,2021-05-19 17:22:36:458
-1.416,-2.4568,-0.9156,-0.382,-9.3721,-2.8615,-1.2392,6.7848,2.5732,0.8279,-0.1962,0.6415,61341,2021-05-19 17:22:36:960
-3.4391,-3.5653,-1.1596,0.3096,-9.4015,-2.7723,2.6575,2.1905,0.1799,-0.0831,0.045,0.3239,61842,2021-05-19 17:22:37:461
0.1499,-0.137,0.9829,0.3698,-9.7662,-0.8094,-2.2782,8.0517,2.0095,2.1396,-0.1735,0.1173,62340,2021-05-19 17:22:37:959
3.2788,-3.4289,-3.8435,0.1163,-9.1821,-3.4418,3.2049,-0.0473,-1.7411,-1.4393,-0.8027,-0.201,62839,2021-05-19 17:22:38:458
-4.526,-10.8123,-5.1673,0.0079,-9.5842,-2.077,-6.9214,-2.229,-0.3091,0.8086,0.3326,-0.4968,63340,2021-05-19 17:22:38:959
-2.9171,-7.9753,1.1794,3.4522,-8.738,-2.8108,0,0,0,0.5418,0.4555,-0.0466,63840,2021-05-19 17:22:39:459
-2.9171,-7.9753,1.1794,3.4522,-8.738,-2.8108,0,0,0,0.5418,0.4555,-0.0466,63842,2021-05-19 17:22:39:461
-2.9171,-7.9753,1.1794,3.4522,-8.738,-2.8108,0,0,0,0.5418,0.4555,-0.0466,63864,2021-05-19 17:22:39:483
0.7842,-9.2441,0.0159,1.6225,-9.6714,-0.0467,0,0,0,0.4546,1.2955,0.1153,64610,2021-05-19 17:22:40:229
0.7842,-9.2441,0.0159,1.6225,-9.6714,-0.0467,0,0,0,0.4546,1.2955,0.1153,64611,2021-05-19 17:22:40:230
0.7842,-9.2441,0.0159,1.6225,-9.6714,-0.0467,0,0,0,0.4546,1.2955,0.1153,64612,2021-05-19 17:22:40:231
0.7842,-9.2441,0.0159,1.6225,-9.6714,-0.0467,0,0,0,0.4546,1.2955,0.1153,64612,2021-05-19 17:22:40:231
0.7842,-9.2441,0.0159,1.6225,-9.6714,-0.0467,0,0,0,0.4546,1.2955,0.1153,64613,2021-05-19 17:22:40:232
0.7842,-9.2441,0.0159,1.6225,-9.6714,-0.0467,0,0,0,0.4546,1.2955,0.1153,64613,2021-05-19 17:22:40:232
-1.2485,-10.9582,2.7858,-2.3665,-9.4805,0.8306,0,0,0,-0.5907,0.0509,-0.3572,64729,2021-05-19 17:22:40:348
2.4984,-5.3465,-3.1947,-0.8117,-8.9238,-3.9846,1.4284,0.3698,0.024,-0.188,0.8075,0.4264,65326,2021-05-19 17:22:40:945
2.4984,-5.3465,-3.1947,-0.8117,-8.9238,-3.9846,1.4284,0.3698,0.024,-0.188,0.8075,0.4264,65327,2021-05-19 17:22:40:946
3.3123,-6.309,-3.4989,3.5005,-8.9843,-1.7884,0,0,0,-0.0017,0.0336,0.2929,65731,2021-05-19 17:22:41:350
3.3123,-6.309,-3.4989,3.5005,-8.9843,-1.7884,0,0,0,-0.0017,0.0336,0.2929,65733,2021-05-19 17:22:41:352
7.229,-10.9893,-4.3917,-1.8113,-9.3112,2.4884,0,0,0,-0.0615,0.5896,0.485,66347,2021-05-19 17:22:41:966
7.229,-10.9893,-4.3917,-1.8113,-9.3112,2.4884,0,0,0,-0.0615,0.5896,0.485,66348,2021-05-19 17:22:41:967
7.229,-10.9893,-4.3917,-1.8113,-9.3112,2.4884,0,0,0,-0.0615,0.5896,0.485,66348,2021-05-19 17:22:41:967
7.229,-10.9893,-4.3917,-1.8113,-9.3112,2.4884,0,0,0,-0.0615,0.5896,0.485,66348,2021-05-19 17:22:41:967
2.5367,-1.4752,0.454,-1.7673,-1.824,-9.4721,0,0,0,2.4535,0.6144,0.5044,66817,2021-05-19 17:22:42:436
2.5367,-1.4752,0.454,-1.7673,-1.824,-9.4721,0,0,0,2.4535,0.6144,0.5044,67259,2021-05-19 17:22:42:878
-1.8182,-5.8708,-2.601,-1.3281,-9.2551,-2.9579,-0.4534,0.3758,0.5071,0.9044,0.7136,0.6519,67823,2021-05-19 17:22:43:442
-0.8031,-5.3249,-4.2434,1.2466,-9.4092,-2.4665,-0.0862,1.5102,-1.8102,-0.999,0.6519,-0.2115,68264,2021-05-19 17:22:43:883
0.6191,-2.8663,-2.814,-1.8235,-9.2765,-2.6063,0.0238,8.9325,2.2343,1.5994,0.3025,0.0585,68758,2021-05-19 17:22:44:377
-0.8509,-7.3816,-3.4866,-0.3344,-9.666,-1.6208,-0.0312,2.0513,-0.156,0.6469,-0.3551,0.2666,69258,2021-05-19 17:22:44:877
-0.8318,-1.0274,0.114,0.4279,-9.2035,-3.3591,-1.1424,8.6146,2.8614,0.9228,-0.1365,0.8966,69759,2021-05-19 17:22:45:378
1.7874,-6.8477,-4.5664,0.4636,-9.559,-2.1403,0.288,1.9021,-2.1906,0.4897,-0.4954,0.2515,70259,2021-05-19 17:22:45:878
-1.3585,-1.9899,-0.2477,-0.2966,-9.3345,-2.9916,-1.7943,3.3473,1.9698,0.493,0.2599,0.646,70758,2021-05-19 17:22:46:377
-0.9993,-8.6527,-0.1543,0.3337,-9.7965,-0.2972,-1.018,1.5094,-1.2133,1.1866,1.0911,0.412,71260,2021-05-19 17:22:46:879
-1.6627,-8.5211,-2.0097,-0.3919,-8.937,-4.0183,-0.9355,1.2945,2.5052,-0.1552,0.5007,0.7323,71758,2021-05-19 17:22:47:377
-1.5284,-9.0455,0.7603,-0.3516,-9.7542,-0.9498,0.0414,-0.2184,3.3411,1.1194,1.3882,0.1773,72260,2021-05-19 17:22:47:879
-0.9012,-10.9199,-1.4447,0.1557,-9.3595,-2.9235,0.5317,0.526,-0.1909,-1.9723,0.8202,-0.4699,72759,2021-05-19 17:22:48:378
0.8058,-13.5177,-3.0727,0.1952,-9.7058,-1.389,6.2222,-2.462,-6.844,0.4058,0.7158,0.3618,73258,2021-05-19 17:22:48:877
2.831,-10.3717,3.3102,0.3821,-9.2392,-3.2653,-2.1514,-0.6692,0.7885,-2.5277,0.593,0.4554,73759,2021-05-19 17:22:49:378
4.3298,-18.5043,2.0028,0.1123,-9.6027,-1.9863,-3.8048,-2.4176,3.0441,0.5502,0.2726,0.5316,74259,2021-05-19 17:22:49:878
-2.103,-9.1364,-1.672,-2.3585,-9.5033,-0.5436,0,0,0,1.6206,0.9451,-0.5484,75059,2021-05-19 17:22:50:678
-2.103,-9.1364,-1.672,-2.3585,-9.5033,-0.5436,0,0,0,1.6206,0.9451,-0.5484,75065,2021-05-19 17:22:50:684
-2.103,-9.1364,-1.672,-2.3585,-9.5033,-0.5436,0,0,0,1.6206,0.9451,-0.5484,75065,2021-05-19 17:22:50:684
-2.103,-9.1364,-1.672,-2.3585,-9.5033,-0.5436,0,0,0,1.6206,0.9451,-0.5484,75065,2021-05-19 17:22:50:684
-2.103,-9.1364,-1.672,-2.3585,-9.5033,-0.5436,0,0,0,1.6206,0.9451,-0.5484,75066,2021-05-19 17:22:50:685
-2.103,-9.1364,-1.672,-2.3585,-9.5033,-0.5436,0,0,0,1.6206,0.9451,-0.5484,75066,2021-05-19 17:22:50:685
-2.103,-9.1364,-1.672,-2.3585,-9.5033,-0.5436,0,0,0,1.6206,0.9451,-0.5484,75066,2021-05-19 17:22:50:685
-2.103,-9.1364,-1.672,-2.3585,-9.5033,-0.5436,0,0,0,1.6206,0.9451,-0.5484,75066,2021-05-19 17:22:50:685
-2.103,-9.1364,-1.672,-2.3585,-9.5033,-0.5436,0,0,0,1.6206,0.9451,-0.5484,75066,2021-05-19 17:22:50:685
-2.103,-9.1364,-1.672,-2.3585,-9.5033,-0.5436,0,0,0,1.6206,0.9451,-0.5484,75066,2021-05-19 17:22:50:685
0.3772,-9.3685,-0.827,-0.1036,-9.767,-0.8753,0,0,0,0.37,0.3572,-0.1106,75090,2021-05-19 17:22:50:709
1.0116,-7.8532,-0.9514,-1.6081,-9.0629,-3.3835,0,0,0,0.6206,0.4456,0.4563,75590,2021-05-19 17:22:51:209
1.0116,-7.8532,-0.9514,-1.6081,-9.0629,-3.3835,0,0,0,0.6206,0.4456,0.4563,75592,2021-05-19 17:22:51:211
1.0116,-7.8532,-0.9514,-1.6081,-9.0629,-3.3835,0,0,0,0.6206,0.4456,0.4563,75915,2021-05-19 17:22:51:534
-0.9299,-10.7357,-1.3298,3.2351,-9.2448,0.4883,0,0,0,0.5453,0.6478,-0.1901,75945,2021-05-19 17:22:51:564
2.6563,-5.8469,-2.8953,-0.1628,-8.9877,-3.9198,0,0,0,0.7524,0.5525,0.0661,76445,2021-05-19 17:22:52:064
-0.2955,-6.4406,-1.9283,1.7701,-9.6433,-0.2096,0.0896,3.3459,-2.1162,0.4259,0.0469,0.0464,76945,2021-05-19 17:22:52:564
-0.2955,-6.4406,-1.9283,1.7701,-9.6433,-0.2096,0.0896,3.3459,-2.1162,0.4259,0.0469,0.0464,76948,2021-05-19 17:22:52:567
-0.2955,-6.4406,-1.9283,1.7701,-9.6433,-0.2096,0.0896,3.3459,-2.1162,0.4259,0.0469,0.0464,77323,2021-05-19 17:22:52:942
-2.5579,-2.263,-1.2099,-6.6887,-5.9237,-4.0425,0,0,0,0.7066,-0.3448,1.069,77659,2021-05-19 17:22:53:278
3.4442,-6.5698,-4.0639,0.9576,-9.4216,-2.547,0.8183,3.5065,1.009,-0.4456,0.9963,0.4658,78158,2021-05-19 17:22:53:777
-1.4112,-5.9785,-2.2466,-2.3476,-9.2475,-2.268,1.3877,0.7711,-1.157,1.6264,1.1864,0.0402,78659,2021-05-19 17:22:54:278
-1.6436,-11.4132,-2.4215,-0.5715,-9.7247,-1.1289,-1.6668,-0.5855,-0.8689,0.5756,0.8656,-0.0525,79192,2021-05-19 17:22:54:811
-2.7278,-10.5775,-1.258,0.0301,-9.33,-3.0199,-3.2199,-0.4004,5.8732,-2.3586,1.7988,0.2152,79659,2021-05-19 17:22:55:278
-0.5614,-5.0207,-2.4215,-0.4066,-9.6215,-1.8523,-6.9068,-3.9222,1.3288,0.3499,0.8349,0.2223,80158,2021-05-19 17:22:55:777
0.9398,-9.6368,-1.0567,-0.3859,-9.7841,0.5419,0.4522,0.1929,-1.2912,0.4511,0.779,0.2619,80659,2021-05-19 17:22:56:278
-1.8326,-8.7724,-2.8666,-1.6381,-9.6226,-0.9449,1.7168,0.8164,1.9328,-0.7639,-0.215,0.1022,81159,2021-05-19 17:22:56:778
-1.0232,-8.5379,-0.14,-0.9151,-9.7603,-0.2632,-0.3698,1.0246,-0.0923,0.2617,0.6394,-0.1735,81659,2021-05-19 17:22:57:278
1.0068,-5.5857,-3.0727,-0.3609,-9.4925,-2.4355,3.1663,2.2721,1.4437,-1.5384,-0.8242,0.172,82159,2021-05-19 17:22:57:778
1.0235,-8.0088,1.0238,-0.3227,-9.4766,-2.502,2.6367,4.4366,1.5306,2.0192,-1.464,0.1506,82659,2021-05-19 17:22:58:278
3.0754,-6.2827,-1.2724,-0.5234,-9.3509,-2.908,3.4532,1.6418,0.8788,-0.2242,-0.2869,0.4328,83159,2021-05-19 17:22:58:778
-0.5064,-10.0388,-2.9387,0.165,-9.6858,-1.5261,3.733,0.7074,1.5177,1.5572,0.4251,0.1584,83659,2021-05-19 17:22:59:278
1.3397,-7.4342,-3.5659,0.0799,-9.5057,-2.4094,0.5042,2.3203,-0.4727,-0.0664,0.4113,0.4455,84159,2021-05-19 17:22:59:778
-1.5978,-2.1885,-2.9889,0.4418,-8.8538,-4.1935,-2.2,3.6912,1.8904,1.607,0.9186,0.9451,84659,2021-05-19 17:23:00:278
4.7465,-9.6727,-1.0567,-0.245,-9.8029,0.1149,3.1225,0.3534,-0.2883,0.8527,0.5466,0.523,85159,2021-05-19 17:23:00:778
-2.0527,-8.5762,-3.4101,-0.5165,-9.1222,-3.5622,-0.8886,0.4401,0.5652,-0.6374,0.5253,0.4835,85658,2021-05-19 17:23:01:277
-0.2692,-11.3079,-4.8084,-0.4867,-9.5891,-1.9958,-0.23,0.0868,-2.1906,0.6237,-0.1069,0.1833,86159,2021-05-19 17:23:01:778
-1.191,-6.4119,-4.7127,-0.1113,-9.607,-1.9654,-0.3558,2.2893,-1.635,-0.4398,0.6354,-0.086,86659,2021-05-19 17:23:02:278
-4.2553,-7.0367,-3.8315,0.0552,-8.2096,-5.3638,-3.3034,1.5452,1.6065,0.0272,-0.2947,0.348,87159,2021-05-19 17:23:02:778
-5.3901,-17.9297,-1.6528,1.4394,-9.1896,-3.1063,2.442,-7.9715,3.0688,-1.5697,0.4791,-0.2066,87662,2021-05-19 17:23:03:281
-0.5037,-8.2863,-2.5316,0.3442,-8.2072,-5.3567,0.3001,-6.535,-4.3078,-1.0035,0.5568,-0.5375,88159,2021-05-19 17:23:03:778
8.9719,-26.0578,-2.2298,-0.4435,-9.6313,-1.7921,-8.8649,8.9164,0.5141,-0.2045,-0.1581,0.9656,88662,2021-05-19 17:23:04:281
0.9972,-10.089,-4.7629,0.0637,-9.7911,-0.549,3.2599,-0.0515,-2.5015,-1.6294,0.6386,-0.3457,89159,2021-05-19 17:23:04:778
3.1304,-11.0516,-5.2681,-1.7095,-9.09,-3.2587,0,0,0,0.6582,0.1994,0.5226,89659,2021-05-19 17:23:05:278
-0.1902,-18.6936,-9.1131,0.2326,-9.1645,-3.4827,1.2653,1.699,1.844,-0.5433,-0.6118,0.1203,90159,2021-05-19 17:23:05:778
-3.6114,-10.5033,-11.6387,0.2307,-9.6609,-1.6687,2.7104,-0.2872,-0.0182,1.5349,-0.8211,-0.2508,90659,2021-05-19 17:23:06:278
2.5654,-6.699,-4.1453,0.1535,-9.3013,-3.1037,2.4632,2.4126,-0.8733,-0.9583,-0.5291,0.1087,91158,2021-05-19 17:23:06:777
-16.2978,-13.9531,-15.4334,0.341,-9.6976,-1.4183,1.0221,-3.7079,-8.7365,1.9356,-0.8923,0.2155,91659,2021-05-19 17:23:07:278
-3.3123,2.0608,-1.4853,-0.0032,-8.229,-5.3343,-0.3178,-6.5511,0.2729,-0.4421,0.532,-0.3166,92158,2021-05-19 17:23:07:777
4.5981,-7.6591,-2.8881,0.4472,-9.7668,-0.7615,1.5036,-0.9613,-1.1021,1.4897,1.1159,0.6367,92659,2021-05-19 17:23:08:278
-0.3601,-4.9944,-3.1493,-0.6528,-9.0094,-3.8177,-0.7122,4.8431,1.6316,1.0765,1.0161,0.6612,93159,2021-05-19 17:23:08:778
2.8334,-9.8258,0.8752,0.1585,-9.7949,-0.453,-2.8034,0.7352,-0.9829,0.7494,2.1671,-0.3772,93659,2021-05-19 17:23:09:278
0.2623,-12.7705,-2.7278,0.8465,-9.3484,-2.8392,-5.1975,-1.7362,0.6261,-2.0356,1.5465,-0.1095,94159,2021-05-19 17:23:09:778
2.1296,-17.8125,0.856,0.1204,-9.7965,-0.4305,3.3787,-3.6006,-1.3814,0.4665,1.0487,0.1698,94658,2021-05-19 17:23:10:277
-3.3673,-15.5836,-0.6712,0.3301,-9.3274,-3.0101,-4.7585,-3.9311,-0.6984,-2.0721,0.9027,-0.1419,95159,2021-05-19 17:23:10:778
-0.1807,-7.0415,-2.0384,0.0607,-9.4863,-2.4854,0.3503,3.0569,1.0045,1.0937,0.4351,0.6156,95659,2021-05-19 17:23:11:278
2.3572,-12.6197,-3.9511,0.4171,-9.4174,-2.7036,-0.2296,-1.3899,2.7977,0.7414,-0.4313,-0.1883,96350,2021-05-19 17:23:11:969
2.3572,-12.6197,-3.9511,0.4171,-9.4174,-2.7036,-0.2296,-1.3899,2.7977,0.7414,-0.4313,-0.1883,96351,2021-05-19 17:23:11:970
-0.0347,-5.2842,-1.8876,-4.1059,-8.44,-2.8424,0,0,0,0.2488,0.0228,0.3494,96409,2021-05-19 17:23:12:028
-7.2841,-8.327,-19.6205,1.414,-9.6989,0.3208,2.8167,-10.8492,0.2518,2.729,-2.4915,-0.5003,96908,2021-05-19 17:23:12:527
-7.3199,-16.3283,-6.6517,0.4539,-9.4084,-2.729,0,0,0,-0.7255,0.9467,-0.4942,97409,2021-05-19 17:23:13:028
1.5455,-15.5453,4.4186,0.2448,-9.567,-2.1409,0.4836,-3.283,-2.24,0.5038,0.7176,0.3912,97908,2021-05-19 17:23:13:527
2.2158,-9.8641,-0.6808,1.3357,-9.6937,-0.6464,0.4908,-0.1123,-0.1929,0.2535,0.4441,0.0113,98409,2021-05-19 17:23:14:028
0.8345,-9.2752,-5.0333,0.1262,-9.4624,-2.5724,-1.7131,2.1238,0.2698,0.118,0.1901,0.2981,98908,2021-05-19 17:23:14:527
6.6568,-19.7925,-5.6821,-0.1648,-8.9081,-4.0974,0.8181,2.2753,0.3923,-0.5055,0.7863,0.4073,99408,2021-05-19 17:23:15:027
3.6165,-4.0011,1.876,-0.3368,-9.3407,-2.968,3.8092,2.8851,3.3524,0.9841,0.3331,1.0962,99938,2021-05-19 17:23:15:557
0.3867,-23.1419,-7.3747,0.254,-9.3075,-3.0782,3.0431,3.753,2.2008,-1.3106,0.7194,-0.3859,100412,2021-05-19 17:23:16:031
3.3482,-10.1659,-4.7533,-0.4069,-9.6635,-1.6188,2.7334,1.9478,-2.0056,1.0664,1.0769,0.3935,100908,2021-05-19 17:23:16:527
1.2368,-9.2321,1.5526,-0.336,-9.8009,-0.0217,1.8119,0.6188,1.6013,0.086,1.4538,0.1494,101408,2021-05-19 17:23:17:027
-1.914,-6.2563,-1.8589,0.5812,-9.1827,-3.3927,2.558,-0.9919,4.1054,-0.4609,-0.1219,-0.2509,101911,2021-05-19 17:23:17:530
16.8221,-24.2767,1.919,0.2036,-9.1274,-3.5804,-2.5302,-1.0081,0.88,-0.1651,0.6889,-0.5527,102411,2021-05-19 17:23:18:030
-1.282,-3.084,-0.9682,0.3176,-8.7602,-4.3964,-1.9414,0.925,1.734,-0.162,0.365,-0.4062,102911,2021-05-19 17:23:18:530
-7.5353,-9.4211,1.6989,2.1826,-9.4923,-1.1411,-0.5235,0.1941,2.2107,-0.2297,-0.821,0.7741,103411,2021-05-19 17:23:19:030
-0.2907,-3.8548,-1.6863,0.3893,-9.1357,-3.5436,-1.2693,2.2848,1.198,0.795,-0.1602,0.3184,103908,2021-05-19 17:23:19:527
2.3692,-6.2731,-7.509,0.1832,-9.2973,-3.1141,1.7092,4.7331,0.7131,0.1804,0.567,0.1506,104409,2021-05-19 17:23:20:028
2.0698,-7.9059,-3.2282,-0.617,-9.3877,-2.7677,2.6343,2.1626,-0.3697,1.3649,0.6512,0.0618,104909,2021-05-19 17:23:20:528
1.5814,-9.6464,1.2679,-0.5334,-9.7753,-0.5733,-1.8249,0.3964,-1.4644,0.2915,0.5012,0.148,105409,2021-05-19 17:23:21:028
-0.8318,-10.3214,-0.1711,-0.0739,-9.639,-1.8042,-1.7809,-0.9114,0.3473,-2.0182,0.9002,-0.4661,105908,2021-05-19 17:23:21:527
-6.2737,-17.9659,-0.2572,-0.15,-9.6476,-1.7529,-3.1752,-3.8096,0.2414,0.5403,1.3802,-0.0388,106409,2021-05-19 17:23:22:028
1.1865,-9.7708,-2.2155,-0.3105,-9.7977,0.2817,1.3471,0.2848,-0.9923,0.4432,0.713,0.1917,106909,2021-05-19 17:23:22:528
-1.6699,-7.5203,-3.0535,0.1942,-8.9856,-3.9233,-2.7743,1.6661,1.9387,-0.0884,0.2532,0.4398,107409,2021-05-19 17:23:23:028
1.0403,-11.3964,2.161,0.0605,-9.5802,-2.0946,-1.6695,-2.9461,-1.4433,-0.0661,1.0497,0.341,107908,2021-05-19 17:23:23:527
-1.9283,-5.0498,-1.0328,0.4348,-9.5626,-2.1304,0.771,2.506,-1.3471,-0.9172,0.604,-0.2466,108411,2021-05-19 17:23:24:030
-2.4479,-5.0402,-3.5994,0.2565,-8.297,-5.2215,-3.3301,1.9997,1.9191,-0.1025,-0.5308,0.5702,108908,2021-05-19 17:23:24:527
10.9328,-18.5261,-10.6259,0.5523,-9.227,-3.2753,-0.0253,-1.5121,7.0107,0.0203,-0.2527,0.1767,109408,2021-05-19 17:23:25:027
2.6372,-6.2228,-3.3718,0.165,-9.3441,-2.9717,-0.6788,1.4189,0.0379,0.0443,-0.0576,0.2969,110021,2021-05-19 17:23:25:640
1.0857,-6.2372,-1.5284,1.2562,-9.2589,-2.9776,0,0,0,0.0127,0.1419,0.4685,110101,2021-05-19 17:23:25:720
-1.0762,-8.6097,-2.4646,0.2009,-9.5165,2.3593,0,0,0,-0.8085,-0.7211,-0.2011,110600,2021-05-19 17:23:26:219
-1.8972,-14.8128,13.2311,-0.8337,-9.2366,-3.1876,-2.728,-2.781,-5.2486,-1.1991,2.887,-0.1318,111011,2021-05-19 17:23:26:630
-0.4774,-10.3454,-1.5212,0.9538,-9.7214,-0.8689,0.5187,-0.6829,2.1224,-0.354,1.2241,0.2286,111510,2021-05-19 17:23:27:129
-3.4032,-8.1452,-1.7533,-0.8418,-9.4227,-2.5836,-1.5983,0.9789,0.0582,0.2332,0.4551,0.3732,112010,2021-05-19 17:23:27:629
-0.4582,-9.979,-4.4611,-0.9692,-9.4046,-2.6049,-0.4675,-1.3344,1.3708,-1.5775,-0.2483,-0.3648,112510,2021-05-19 17:23:28:129
-1.9403,-9.9024,-6.1609,-2.0026,-8.3486,-4.7393,1.0328,0.8371,0.4739,0.2095,0.0623,0.5488,113010,2021-05-19 17:23:28:629
-2.211,-7.6113,-5.7948,-1.8719,-8.3484,-4.7928,0.0203,0.5776,-0.4775,0.0933,-6.00E-04,-0.0791,113511,2021-05-19 17:23:29:130
-1.1647,-8.4948,-4.5736,-1.6797,-8.4754,-4.6386,0.3207,-0.2616,0.0449,0.035,0.1054,0.0367,114011,2021-05-19 17:23:29:630
-1.4231,-8.3868,-4.9926,-1.6157,-8.5327,-4.5556,-0.2297,-0.0733,-0.0146,0.0221,0.1652,0.1171,114510,2021-05-19 17:23:30:129
-2.0312,-8.5522,-4.7031,-1.8264,-8.447,-4.6349,-0.0877,-0.0863,-0.1027,0.0577,-0.1011,0.0512,115010,2021-05-19 17:23:30:629
-2.1078,-8.4948,-4.5162,-1.9865,-8.4451,-4.5721,-0.0812,0.0142,0.0594,0.0163,-0.071,-0.0267,115511,2021-05-19 17:23:31:130
-1.8829,-8.4757,-4.6409,-1.9101,-8.4563,-4.5839,-0.0479,0.0361,0.0317,-0.0194,0.0281,-0.0017,116011,2021-05-19 17:23:31:630
-0.8342,-6.5889,-5.517,-0.4458,-8.6495,-4.5998,-0.6465,1.8844,-0.3454,-0.2857,0.5412,-0.2315,116510,2021-05-19 17:23:32:129
0.1786,-8.7174,-1.1572,-0.173,-9.7316,-1.1988,-0.8051,0.7287,-0.1383,0.8152,-0.7341,0.1445,117010,2021-05-19 17:23:32:629
-3.0894,-8.8322,-1.2314,-1.5471,-9.1967,-3.0329,-2.7387,0.4135,3.7529,-1.2816,-0.022,0.4774,117511,2021-05-19 17:23:33:130
-0.8821,-9.4427,2.417,-0.2562,-9.5485,-2.2204,-5.7827,-0.9221,1.506,0.7466,2.0711,-0.4138,118010,2021-05-19 17:23:33:629
4.6125,-10.197,-2.2585,1.8241,-8.3273,-4.8476,1.8642,-5.68,5.0748,-1.0042,1.2721,-1.0065,118510,2021-05-19 17:23:34:129
0.6718,-8.1595,-5.5792,-0.0931,-9.2202,-3.3392,2.697,0.9376,4.3477,-1.1415,0.7633,1.2397,119010,2021-05-19 17:23:34:629
1.852,-14.4918,2.5487,0.6019,-8.9573,-3.9465,-1.3652,-3.5262,-9.7379,-1.112,0.5913,0.6528,119511,2021-05-19 17:23:35:130
-6.6135,-12.7537,1.1841,-0.0504,-9.193,-3.4141,-7.9919,-4.8402,2.5438,-2.8175,0.6383,-0.0214,120013,2021-05-19 17:23:35:632
-4.7557,-9.6224,-5.5935,-0.7341,-9.5681,-2.0204,-4.8337,0.0035,0.8492,0.0614,0.3567,0.3606,120511,2021-05-19 17:23:36:130
-0.7504,-7.2138,-1.0663,-0.117,-9.8059,-0.0051,0.8514,0.244,-1.7619,-0.9205,0.2234,0.1486,121010,2021-05-19 17:23:36:629
-6.4196,-10.7213,5.3043,1.0941,-9.2916,-2.9392,4.5681,6.976,-1.3909,3.1578,0.3045,-2.2968,121511,2021-05-19 17:23:37:130
2.2062,-8.8083,-5.2202,-0.0821,-9.1549,-3.5144,3.4124,1.18,-0.659,0.1245,-0.9267,0.1216,122010,2021-05-19 17:23:37:629
-3.597,-8.2385,5.4718,0.3222,-9.5448,-2.228,-1.4387,-1.7961,-14.3952,-1.355,1.2513,-0.0933,122511,2021-05-19 17:23:38:130
-2.7087,-2.167,-3.9224,0.6069,-7.9655,-5.688,0.007,-9.848,0.3395,0.0846,-0.0504,-0.2732,123011,2021-05-19 17:23:38:630
3.9251,-12.1911,-0.9036,0.8874,-9.7105,-1.0437,0.8874,-0.0456,0.0317,1.1899,1.4228,0.1611,123510,2021-05-19 17:23:39:129
0.1714,-8.5235,-2.3064,-0.7677,-8.315,-5.1421,0.4515,-0.1336,4.2889,-1.1432,-0.4952,0.8222,124011,2021-05-19 17:23:39:630
0.947,-12.7944,4.2772,-0.3147,-9.6549,-1.6897,1.1672,3.1515,4.043,0.6982,0.9459,-0.1188,124510,2021-05-19 17:23:40:129
1.4617,-9.9526,-1.3226,-0.0675,-9.8064,0.018,1.5399,-0.0147,-1.3257,0.5342,0.751,0.2527,125168,2021-05-19 17:23:40:787
1.4617,-9.9526,-1.3226,-0.0675,-9.8064,0.018,1.5399,-0.0147,-1.3257,0.5342,0.751,0.2527,125168,2021-05-19 17:23:40:787
1.4617,-9.9526,-1.3226,-0.0675,-9.8064,0.018,1.5399,-0.0147,-1.3257,0.5342,0.751,0.2527,125169,2021-05-19 17:23:40:788
1.4617,-9.9526,-1.3226,-0.0675,-9.8064,0.018,1.5399,-0.0147,-1.3257,0.5342,0.751,0.2527,125169,2021-05-19 17:23:40:788
1.4617,-9.9526,-1.3226,-0.0675,-9.8064,0.018,1.5399,-0.0147,-1.3257,0.5342,0.751,0.2527,125169,2021-05-19 17:23:40:788
1.4617,-9.9526,-1.3226,-0.0675,-9.8064,0.018,1.5399,-0.0147,-1.3257,0.5342,0.751,0.2527,125169,2021-05-19 17:23:40:788
1.4617,-9.9526,-1.3226,-0.0675,-9.8064,0.018,1.5399,-0.0147,-1.3257,0.5342,0.751,0.2527,125170,2021-05-19 17:23:40:789
1.4617,-9.9526,-1.3226,-0.0675,-9.8064,0.018,1.5399,-0.0147,-1.3257,0.5342,0.751,0.2527,125170,2021-05-19 17:23:40:789
1.4617,-9.9526,-1.3226,-0.0675,-9.8064,0.018,1.5399,-0.0147,-1.3257,0.5342,0.751,0.2527,125170,2021-05-19 17:23:40:789
1.4617,-9.9526,-1.3226,-0.0675,-9.8064,0.018,1.5399,-0.0147,-1.3257,0.5342,0.751,0.2527,125170,2021-05-19 17:23:40:789
2.6922,-9.0144,-0.5252,1.7763,-9.5389,-1.4227,0,0,0,-0.3086,1.795,-0.4128,125635,2021-05-19 17:23:41:254
-2.2636,-9.5363,-3.1301,5.3018,-8.0702,-1.7129,0,0,0,-0.0127,1.4761,-0.1066,126081,2021-05-19 17:23:41:700
-0.8725,-7.7524,-2.589,-0.4897,-9.3817,-2.8132,0,0,0,-0.6548,-0.5119,0.2005,126396,2021-05-19 17:23:42:015
-2.723,-3.4265,-3.0607,0.0187,-8.9683,-3.9672,-1.0339,1.7783,2.112,0.3813,0.412,-0.4503,126821,2021-05-19 17:23:42:440
7.0496,-15.792,6.8318,0.406,-9.5192,-2.3216,-1.2419,-5.8469,4.4252,0.9833,2.0792,-0.0195,127321,2021-05-19 17:23:42:940
2.8573,-10.0316,1.555,-0.2976,-9.0707,-3.7154,-4.1449,-1.6545,-2.2596,-1.0916,0.9966,-0.036,127867,2021-05-19 17:23:43:486
-6.1732,-5.0016,2.5798,0.6841,-9.5494,-2.1239,-4.6071,-9.4442,3.8565,0.1516,1.4792,0.2085,128599,2021-05-19 17:23:44:218
-6.1732,-5.0016,2.5798,0.6841,-9.5494,-2.1239,-4.6071,-9.4442,3.8565,0.1516,1.4792,0.2085,128600,2021-05-19 17:23:44:219
4.0379,-4.5637,-1.4279,-4.0918,-6.6228,-5.9638,0.3709,0.508,-0.2863,0.4963,0.389,0.4855,128723,2021-05-19 17:23:44:342
0.8201,-4.8724,-1.4495,-0.7234,-9.6784,-1.4055,-1.3504,2.7943,-0.5499,-0.0235,0.2199,0.221,129223,2021-05-19 17:23:44:842
5.9219,-15.4639,3.8656,-0.1992,-9.7877,-0.5758,3.8208,1.3307,2.2913,2.2055,-2.5614,-0.3115,129660,2021-05-19 17:23:45:279
2.2349,-8.6312,-1.9714,0.3302,-9.0886,-3.6687,2.5047,2.4628,1.4422,-0.0064,1.4282,0.3899,130159,2021-05-19 17:23:45:778
-4.1309,-15.0664,-18.4427,0.4087,-9.6943,-1.4229,3.6369,0.0125,0.7928,2.0816,0.8611,-0.4769,130658,2021-05-19 17:23:46:277
1.8042,-9.711,-4.6672,0.039,-9.805,0.1757,6.556,1.1057,-2.1188,0.1878,0.2937,0.4647,131159,2021-05-19 17:23:46:778
0.6141,-8.1811,-2.9794,-0.4334,-8.8793,-4.1401,-2.0795,1.3762,1.4972,0.4655,0.3993,-0.0353,131659,2021-05-19 17:23:47:278
1.0307,-11.8753,9.3814,0.1184,-9.7722,-0.8122,4.3415,-2.36,3.166,0.5495,0.5855,0.4328,132159,2021-05-19 17:23:47:778
-4.3726,-13.6397,-1.7868,0.0598,-9.8006,-0.3385,0.3376,0.2201,-1.7728,-0.9928,0.4717,-0.3005,132659,2021-05-19 17:23:48:278
0.4466,-6.8955,-2.6034,0.9977,-8.9287,-3.931,0,0,0,0.9332,0.8645,0.1909,133159,2021-05-19 17:23:48:778
1.5502,-9.0718,-0.2453,3.5526,-9.043,-1.3317,0,0,0,0.4042,1.0618,-0.3532,133659,2021-05-19 17:23:49:278
1.6101,-6.2994,-1.8494,0.7425,-8.8259,-4.2098,0.3807,-2.1562,6.6998,-2.3047,0.0531,0.3515,134159,2021-05-19 17:23:49:778
0.0565,-15.2797,-7.6214,2.9336,-9.2455,-1.4439,-5.2626,5.6162,5.1283,-0.0076,-1.1424,0.1188,134660,2021-05-19 17:23:50:279
-0.4319,-4.4871,-3.4795,1.6871,-8.199,-5.1089,-2.3474,0.5562,2.2957,-0.9325,-0.2912,-1.5309,135159,2021-05-19 17:23:50:778
-1.0666,-8.339,-3.2641,0.6112,-9.3239,-2.9768,-0.956,-1.3529,-2.0922,0.1663,-0.4455,0.1556,135659,2021-05-19 17:23:51:278
-0.2094,-9.3661,-3.4412,1.1123,-8.0805,-5.4442,-3.9546,-5.9157,0.2384,-1.8507,0.9624,-0.3198,136462,2021-05-19 17:23:52:081
-0.2094,-9.3661,-3.4412,1.1123,-8.0805,-5.4442,-3.9546,-5.9157,0.2384,-1.8507,0.9624,-0.3198,136463,2021-05-19 17:23:52:082
-0.2094,-9.3661,-3.4412,1.1123,-8.0805,-5.4442,-3.9546,-5.9157,0.2384,-1.8507,0.9624,-0.3198,136464,2021-05-19 17:23:52:083
-0.2094,-9.3661,-3.4412,1.1123,-8.0805,-5.4442,-3.9546,-5.9157,0.2384,-1.8507,0.9624,-0.3198,136464,2021-05-19 17:23:52:083
-0.2094,-9.3661,-3.4412,1.1123,-8.0805,-5.4442,-3.9546,-5.9157,0.2384,-1.8507,0.9624,-0.3198,136464,2021-05-19 17:23:52:083
-0.2094,-9.3661,-3.4412,1.1123,-8.0805,-5.4442,-3.9546,-5.9157,0.2384,-1.8507,0.9624,-0.3198,136464,2021-05-19 17:23:52:083
-0.2094,-9.3661,-3.4412,1.1123,-8.0805,-5.4442,-3.9546,-5.9157,0.2384,-1.8507,0.9624,-0.3198,136465,2021-05-19 17:23:52:084
-0.2094,-9.3661,-3.4412,1.1123,-8.0805,-5.4442,-3.9546,-5.9157,0.2384,-1.8507,0.9624,-0.3198,136465,2021-05-19 17:23:52:084
-2.3258,0.6341,-1.7773,-1.7439,-8.1121,-5.2272,0,0,0,-0.7014,0.814,0.2908,136926,2021-05-19 17:23:52:545
-2.3258,0.6341,-1.7773,-1.7439,-8.1121,-5.2272,0,0,0,-0.7014,0.814,0.2908,136926,2021-05-19 17:23:52:545
-2.3258,0.6341,-1.7773,-1.7439,-8.1121,-5.2272,0,0,0,-0.7014,0.814,0.2908,136926,2021-05-19 17:23:52:545
2.3118,-12.5504,-6.9727,1.9587,-9.5352,-1.1893,1.2544,0.702,-1.6987,1.1427,1.5566,0.1927,137334,2021-05-19 17:23:52:953
2.3118,-12.5504,-6.9727,1.9587,-9.5352,-1.1893,1.2544,0.702,-1.6987,1.1427,1.5566,0.1927,137334,2021-05-19 17:23:52:953
2.3118,-12.5504,-6.9727,1.9587,-9.5352,-1.1893,1.2544,0.702,-1.6987,1.1427,1.5566,0.1927,137334,2021-05-19 17:23:52:953
2.3118,-12.5504,-6.9727,1.9587,-9.5352,-1.1893,1.2544,0.702,-1.6987,1.1427,1.5566,0.1927,137335,2021-05-19 17:23:52:954
2.3118,-12.5504,-6.9727,1.9587,-9.5352,-1.1893,1.2544,0.702,-1.6987,1.1427,1.5566,0.1927,137335,2021-05-19 17:23:52:954
2.3118,-12.5504,-6.9727,1.9587,-9.5352,-1.1893,1.2544,0.702,-1.6987,1.1427,1.5566,0.1927,137335,2021-05-19 17:23:52:954
2.3118,-12.5504,-6.9727,1.9587,-9.5352,-1.1893,1.2544,0.702,-1.6987,1.1427,1.5566,0.1927,137335,2021-05-19 17:23:52:954
2.3118,-12.5504,-6.9727,1.9587,-9.5352,-1.1893,1.2544,0.702,-1.6987,1.1427,1.5566,0.1927,137335,2021-05-19 17:23:52:954
2.3118,-12.5504,-6.9727,1.9587,-9.5352,-1.1893,1.2544,0.702,-1.6987,1.1427,1.5566,0.1927,137336,2021-05-19 17:23:52:955
2.3118,-12.5504,-6.9727,1.9587,-9.5352,-1.1893,1.2544,0.702,-1.6987,1.1427,1.5566,0.1927,137336,2021-05-19 17:23:52:955
1.4641,-9.0215,-0.3793,0.5219,-9.6445,-1.6974,3.153,-3.8408,-1.0841,0.6272,1.3181,-0.3859,137828,2021-05-19 17:23:53:447
0.3197,-4.0681,1.0119,0.781,-9.2738,-3.0914,3.5086,0.6367,-0.3586,-0.4737,0.0751,0.2301,138328,2021-05-19 17:23:53:947
-3.8988,-0.8503,-1.3035,-8.6974,2.7767,-3.5798,0,0,0,1.5916,0.7764,1.8044,138828,2021-05-19 17:23:54:447
2.3692,-7.7309,-1.969,0.2023,-9.1078,-3.6301,2.3643,1.8179,-1.017,-0.2278,0.0895,0.2986,139330,2021-05-19 17:23:54:949
0.0275,-11.164,-2.8834,-2.4013,-9.0089,-3.0405,0,0,0,-1.4889,0.6477,0.1455,139828,2021-05-19 17:23:55:447
0.0275,-11.164,-2.8834,-2.4013,-9.0089,-3.0405,0,0,0,-1.4889,0.6477,0.1455,139830,2021-05-19 17:23:55:449
0.0275,-11.164,-2.8834,-2.4013,-9.0089,-3.0405,0,0,0,-1.4889,0.6477,0.1455,139850,2021-05-19 17:23:55:469
1.148,-10.046,-2.1293,3.0921,-9.2272,-1.212,0.6622,-0.6655,-2.2584,-2.5839,0.1692,0.1298,140350,2021-05-19 17:23:55:969
1.148,-10.046,-2.1293,3.0921,-9.2272,-1.212,0.6622,-0.6655,-2.2584,-2.5839,0.1692,0.1298,140351,2021-05-19 17:23:55:970
1.148,-10.046,-2.1293,3.0921,-9.2272,-1.212,0.6622,-0.6655,-2.2584,-2.5839,0.1692,0.1298,140351,2021-05-19 17:23:55:970
1.148,-10.046,-2.1293,3.0921,-9.2272,-1.212,0.6622,-0.6655,-2.2584,-2.5839,0.1692,0.1298,140351,2021-05-19 17:23:55:970
1.148,-10.046,-2.1293,3.0921,-9.2272,-1.212,0.6622,-0.6655,-2.2584,-2.5839,0.1692,0.1298,140352,2021-05-19 17:23:55:971
1.148,-10.046,-2.1293,3.0921,-9.2272,-1.212,0.6622,-0.6655,-2.2584,-2.5839,0.1692,0.1298,140352,2021-05-19 17:23:55:971
1.148,-10.046,-2.1293,3.0921,-9.2272,-1.212,0.6622,-0.6655,-2.2584,-2.5839,0.1692,0.1298,140352,2021-05-19 17:23:55:971
1.148,-10.046,-2.1293,3.0921,-9.2272,-1.212,0.6622,-0.6655,-2.2584,-2.5839,0.1692,0.1298,140352,2021-05-19 17:23:55:971
1.148,-10.046,-2.1293,3.0921,-9.2272,-1.212,0.6622,-0.6655,-2.2584,-2.5839,0.1692,0.1298,140352,2021-05-19 17:23:55:971
1.148,-10.046,-2.1293,3.0921,-9.2272,-1.212,0.6622,-0.6655,-2.2584,-2.5839,0.1692,0.1298,140352,2021-05-19 17:23:55:971
1.148,-10.046,-2.1293,3.0921,-9.2272,-1.212,0.6622,-0.6655,-2.2584,-2.5839,0.1692,0.1298,140353,2021-05-19 17:23:55:972
1.148,-10.046,-2.1293,3.0921,-9.2272,-1.212,0.6622,-0.6655,-2.2584,-2.5839,0.1692,0.1298,140353,2021-05-19 17:23:55:972
1.148,-10.046,-2.1293,3.0921,-9.2272,-1.212,0.6622,-0.6655,-2.2584,-2.5839,0.1692,0.1298,140354,2021-05-19 17:23:55:973
1.148,-10.046,-2.1293,3.0921,-9.2272,-1.212,0.6622,-0.6655,-2.2584,-2.5839,0.1692,0.1298,140355,2021-05-19 17:23:55:974
1.148,-10.046,-2.1293,3.0921,-9.2272,-1.212,0.6622,-0.6655,-2.2584,-2.5839,0.1692,0.1298,140355,2021-05-19 17:23:55:974
-2.5603,-9.2154,-2.1389,3.3574,-9.1571,-1.0232,0.7459,-0.887,-0.5045,-2.4652,0.9885,0.3294,140568,2021-05-19 17:23:56:187
7.1142,-15.7226,-9.7546,0.7832,-9.5708,-1.989,3.4263,0.1619,-3.323,1.4127,1.4439,0.2911,141068,2021-05-19 17:23:56:687
-0.7385,-9.2632,-0.1304,0.8273,-9.7122,1.0768,1.2163,-0.2463,-1.1296,0.525,0.8747,0.2223,141574,2021-05-19 17:23:57:193
-2.1532,-8.5594,-1.6146,-1.4076,-9.5683,-1.6237,1.6465,0.6347,2.4596,-2.3205,0.9409,0.3189,142068,2021-05-19 17:23:57:687
-0.5399,-4.8269,3.8776,-1.0333,-9.5391,-2.0269,-4.3515,-6.8547,1.1389,-0.3525,0.8378,0.7063,142569,2021-05-19 17:23:58:188
4.0522,-10.386,-2.2825,-0.7185,-9.7761,0.287,2.4409,0.2794,-2.1982,0.1113,0.9772,-0.1523,143068,2021-05-19 17:23:58:687
1.0499,-10.3286,-4.1812,-0.5504,-9.1539,-3.4748,-1.2759,0.6561,0.4552,0.2926,0.0246,-0.2634,143568,2021-05-19 17:23:59:187
1.4354,-9.9263,-7.5425,0.2555,-9.4542,-2.5928,0.0529,-1.2563,2.7245,0.4835,0.8903,0.1411,144069,2021-05-19 17:23:59:688
0.7699,-4.5422,-1.0854,-0.4897,-9.3409,-2.9458,-1.1851,0.6092,-2.2591,-0.5768,0.1855,0.7417,144568,2021-05-19 17:24:00:187
8.3255,-10.6182,0.7771,-0.0945,-9.4791,-2.5116,0.8474,6.6652,2.9245,1.5262,-0.9114,-0.6359,145071,2021-05-19 17:24:00:690
1.8951,-20.4532,-5.6629,0.1536,-8.5275,-4.8404,1.0245,-3.7017,-2.5497,-1.9856,0.0547,-0.7038,145569,2021-05-19 17:24:01:188
1.3851,-16.5724,18.4529,0.4831,-9.4618,-2.5319,-10.0939,-1.1699,-17.0884,0.3331,0.3526,-0.1643,146069,2021-05-19 17:24:01:688
-10.5541,-21.3177,-5.0357,0.966,-8.2029,-5.2867,-2.5233,-10.9834,-1.8119,-1.0247,0.5099,-0.6133,146568,2021-05-19 17:24:02:187
1.7563,-7.1707,0.8752,0.1502,-9.6984,-1.4454,-1.0676,-2.1685,-0.7018,0.6709,1.5748,-0.2338,147069,2021-05-19 17:24:02:688
1.421,-9.7205,-0.4941,0.0533,-9.7931,0.5122,0.5986,0.1937,-2.0198,0.3894,0.6999,0.1008,147568,2021-05-19 17:24:03:187
-0.839,-5.7511,-0.6497,0.571,-8.8377,-4.2119,1.5607,-0.4585,2.3761,-0.8074,-0.1556,0.1756,148069,2021-05-19 17:24:03:688
6.1493,-17.0513,-14.0255,0.3454,-9.1243,-3.5775,1.5463,0.4485,-3.5359,0.2133,1.3567,0.1083,148569,2021-05-19 17:24:04:188
-0.3649,-9.1938,-2.8355,0.6297,-8.9283,-4.0074,0,0,0,1.881,1.0772,0.2077,149325,2021-05-19 17:24:04:944
-0.3649,-9.1938,-2.8355,0.6297,-8.9283,-4.0074,0,0,0,1.881,1.0772,0.2077,149326,2021-05-19 17:24:04:945
-0.3649,-9.1938,-2.8355,0.6297,-8.9283,-4.0074,0,0,0,1.881,1.0772,0.2077,149327,2021-05-19 17:24:04:946
-0.3649,-9.1938,-2.8355,0.6297,-8.9283,-4.0074,0,0,0,1.881,1.0772,0.2077,149327,2021-05-19 17:24:04:946
-0.3649,-9.1938,-2.8355,0.6297,-8.9283,-4.0074,0,0,0,1.881,1.0772,0.2077,149327,2021-05-19 17:24:04:946
-0.3649,-9.1938,-2.8355,0.6297,-8.9283,-4.0074,0,0,0,1.881,1.0772,0.2077,149328,2021-05-19 17:24:04:947
-0.3649,-9.1938,-2.8355,0.6297,-8.9283,-4.0074,0,0,0,1.881,1.0772,0.2077,149328,2021-05-19 17:24:04:947
-0.3649,-9.1938,-2.8355,0.6297,-8.9283,-4.0074,0,0,0,1.881,1.0772,0.2077,149329,2021-05-19 17:24:04:948
-0.3649,-9.1938,-2.8355,0.6297,-8.9283,-4.0074,0,0,0,1.881,1.0772,0.2077,149329,2021-05-19 17:24:04:948
-0.3649,-9.1938,-2.8355,0.6297,-8.9283,-4.0074,0,0,0,1.881,1.0772,0.2077,149329,2021-05-19 17:24:04:948
-0.3649,-9.1938,-2.8355,0.6297,-8.9283,-4.0074,0,0,0,1.881,1.0772,0.2077,149330,2021-05-19 17:24:04:949
-0.3649,-9.1938,-2.8355,0.6297,-8.9283,-4.0074,0,0,0,1.881,1.0772,0.2077,149330,2021-05-19 17:24:04:949
-0.3649,-9.1938,-2.8355,0.6297,-8.9283,-4.0074,0,0,0,1.881,1.0772,0.2077,149331,2021-05-19 17:24:04:950
-0.3649,-9.1938,-2.8355,0.6297,-8.9283,-4.0074,0,0,0,1.881,1.0772,0.2077,149331,2021-05-19 17:24:04:950
-0.3649,-9.1938,-2.8355,0.6297,-8.9283,-4.0074,0,0,0,1.881,1.0772,0.2077,149331,2021-05-19 17:24:04:950
-0.3649,-9.1938,-2.8355,0.6297,-8.9283,-4.0074,0,0,0,1.881,1.0772,0.2077,149332,2021-05-19 17:24:04:951
-0.3649,-9.1938,-2.8355,0.6297,-8.9283,-4.0074,0,0,0,1.881,1.0772,0.2077,149332,2021-05-19 17:24:04:951
-0.4175,-8.8992,-2.4144,1.1565,-9.5722,-1.7902,0,0,0,-0.1536,0.6115,0.0344,149743,2021-05-19 17:24:05:362
-0.4175,-8.8992,-2.4144,1.1565,-9.5722,-1.7902,0,0,0,-0.1536,0.6115,0.0344,149744,2021-05-19 17:24:05:363
2.0076,-11.6333,-6.6637,2.0125,-8.0714,-5.1936,0,0,0,-2.4721,-0.4108,-0.0681,149795,2021-05-19 17:24:05:414
4.5981,-8.9327,1.7396,1.1294,-9.7197,0.6503,0,0,0,-0.2918,0.8625,-0.058,150296,2021-05-19 17:24:05:915
4.5981,-8.9327,1.7396,1.1294,-9.7197,0.6503,0,0,0,-0.2918,0.8625,-0.058,150298,2021-05-19 17:24:05:917
4.5981,-8.9327,1.7396,1.1294,-9.7197,0.6503,0,0,0,-0.2918,0.8625,-0.058,150299,2021-05-19 17:24:05:918
4.5981,-8.9327,1.7396,1.1294,-9.7197,0.6503,0,0,0,-0.2918,0.8625,-0.058,150300,2021-05-19 17:24:05:919
4.5981,-8.9327,1.7396,1.1294,-9.7197,0.6503,0,0,0,-0.2918,0.8625,-0.058,150301,2021-05-19 17:24:05:920
4.5981,-8.9327,1.7396,1.1294,-9.7197,0.6503,0,0,0,-0.2918,0.8625,-0.058,150302,2021-05-19 17:24:05:921
4.5981,-8.9327,1.7396,1.1294,-9.7197,0.6503,0,0,0,-0.2918,0.8625,-0.058,150303,2021-05-19 17:24:05:922
4.5981,-8.9327,1.7396,1.1294,-9.7197,0.6503,0,0,0,-0.2918,0.8625,-0.058,150305,2021-05-19 17:24:05:924
4.5981,-8.9327,1.7396,1.1294,-9.7197,0.6503,0,0,0,-0.2918,0.8625,-0.058,150305,2021-05-19 17:24:05:924
4.5981,-8.9327,1.7396,1.1294,-9.7197,0.6503,0,0,0,-0.2918,0.8625,-0.058,150306,2021-05-19 17:24:05:925
-0.7863,-9.4044,-2.5484,1.7476,-9.6398,0.4362,0,0,0,-1.5036,0.8892,-0.0786,150797,2021-05-19 17:24:06:416
-0.7863,-9.4044,-2.5484,1.7476,-9.6398,0.4362,0,0,0,-1.5036,0.8892,-0.0786,150798,2021-05-19 17:24:06:417
-0.7863,-9.4044,-2.5484,1.7476,-9.6398,0.4362,0,0,0,-1.5036,0.8892,-0.0786,150798,2021-05-19 17:24:06:417
-0.7863,-9.4044,-2.5484,1.7476,-9.6398,0.4362,0,0,0,-1.5036,0.8892,-0.0786,150798,2021-05-19 17:24:06:417
-0.7863,-9.4044,-2.5484,1.7476,-9.6398,0.4362,0,0,0,-1.5036,0.8892,-0.0786,150799,2021-05-19 17:24:06:418
-0.7863,-9.4044,-2.5484,1.7476,-9.6398,0.4362,0,0,0,-1.5036,0.8892,-0.0786,150799,2021-05-19 17:24:06:418
2.2253,-5.2842,-9.5175,0.2818,-9.3188,-3.0415,-0.4953,5.7473,2.7311,1.0639,0.4022,-0.9012,151207,2021-05-19 17:24:06:826
1.9573,-10.3549,1.8162,-0.4352,-9.7936,0.2561,1.9863,-0.3964,0.5476,0.3476,0.3184,0.4381,151707,2021-05-19 17:24:07:326
-0.3817,-10.9247,6.4845,-3.6331,-8.9309,-1.7917,0,0,0,-1.7631,0.6956,-0.1451,152208,2021-05-19 17:24:07:827
5.5555,-14.5564,0.4564,-3.4488,-8.907,2.2231,2.8094,-1.8731,2.7281,0.968,-0.594,0.3897,152708,2021-05-19 17:24:08:327
3.7146,-10.7094,-4.5305,-1.0852,-9.7055,0.8922,3.3749,0.2853,-1.999,0.376,0.8963,0.1987,153280,2021-05-19 17:24:08:899
3.7146,-10.7094,-4.5305,-1.0852,-9.7055,0.8922,3.3749,0.2853,-1.999,0.376,0.8963,0.1987,153281,2021-05-19 17:24:08:900
3.7146,-10.7094,-4.5305,-1.0852,-9.7055,0.8922,3.3749,0.2853,-1.999,0.376,0.8963,0.1987,153281,2021-05-19 17:24:08:900
3.7146,-10.7094,-4.5305,-1.0852,-9.7055,0.8922,3.3749,0.2853,-1.999,0.376,0.8963,0.1987,153281,2021-05-19 17:24:08:900
3.7146,-10.7094,-4.5305,-1.0852,-9.7055,0.8922,3.3749,0.2853,-1.999,0.376,0.8963,0.1987,153281,2021-05-19 17:24:08:900
3.7146,-10.7094,-4.5305,-1.0852,-9.7055,0.8922,3.3749,0.2853,-1.999,0.376,0.8963,0.1987,153281,2021-05-19 17:24:08:900
3.7146,-10.7094,-4.5305,-1.0852,-9.7055,0.8922,3.3749,0.2853,-1.999,0.376,0.8963,0.1987,153282,2021-05-19 17:24:08:901
3.7146,-10.7094,-4.5305,-1.0852,-9.7055,0.8922,3.3749,0.2853,-1.999,0.376,0.8963,0.1987,153282,2021-05-19 17:24:08:901
0.8106,-10.2808,-3.2378,2.8929,-8.8244,-3.1514,0,0,0,2.4509,0.122,0.6212,153763,2021-05-19 17:24:09:382
0.8106,-10.2808,-3.2378,2.8929,-8.8244,-3.1514,0,0,0,2.4509,0.122,0.6212,153764,2021-05-19 17:24:09:383
0.8106,-10.2808,-3.2378,2.8929,-8.8244,-3.1514,0,0,0,2.4509,0.122,0.6212,153765,2021-05-19 17:24:09:384
0.8106,-10.2808,-3.2378,2.8929,-8.8244,-3.1514,0,0,0,2.4509,0.122,0.6212,153765,2021-05-19 17:24:09:384
0.8106,-10.2808,-3.2378,2.8929,-8.8244,-3.1514,0,0,0,2.4509,0.122,0.6212,153765,2021-05-19 17:24:09:384
0.8106,-10.2808,-3.2378,2.8929,-8.8244,-3.1514,0,0,0,2.4509,0.122,0.6212,153765,2021-05-19 17:24:09:384
0.8106,-10.2808,-3.2378,2.8929,-8.8244,-3.1514,0,0,0,2.4509,0.122,0.6212,153765,2021-05-19 17:24:09:384
-6.7095,-4.4605,-2.4503,1.9563,-9.6031,0.353,0,0,0,-0.4193,0.1339,0.3422,153866,2021-05-19 17:24:09:485
2.441,-8.6958,0.7268,2.2693,-9.5347,-0.3317,0,0,0,2.1285,0.6134,0.1324,154718,2021-05-19 17:24:10:337
2.441,-8.6958,0.7268,2.2693,-9.5347,-0.3317,0,0,0,2.1285,0.6134,0.1324,154719,2021-05-19 17:24:10:338
2.441,-8.6958,0.7268,2.2693,-9.5347,-0.3317,0,0,0,2.1285,0.6134,0.1324,154719,2021-05-19 17:24:10:338
2.441,-8.6958,0.7268,2.2693,-9.5347,-0.3317,0,0,0,2.1285,0.6134,0.1324,154719,2021-05-19 17:24:10:338
2.441,-8.6958,0.7268,2.2693,-9.5347,-0.3317,0,0,0,2.1285,0.6134,0.1324,154720,2021-05-19 17:24:10:339
2.441,-8.6958,0.7268,2.2693,-9.5347,-0.3317,0,0,0,2.1285,0.6134,0.1324,154720,2021-05-19 17:24:10:339
2.441,-8.6958,0.7268,2.2693,-9.5347,-0.3317,0,0,0,2.1285,0.6134,0.1324,154720,2021-05-19 17:24:10:339
2.441,-8.6958,0.7268,2.2693,-9.5347,-0.3317,0,0,0,2.1285,0.6134,0.1324,154728,2021-05-19 17:24:10:347
2.441,-8.6958,0.7268,2.2693,-9.5347,-0.3317,0,0,0,2.1285,0.6134,0.1324,154728,2021-05-19 17:24:10:347
2.441,-8.6958,0.7268,2.2693,-9.5347,-0.3317,0,0,0,2.1285,0.6134,0.1324,154728,2021-05-19 17:24:10:347
2.441,-8.6958,0.7268,2.2693,-9.5347,-0.3317,0,0,0,2.1285,0.6134,0.1324,154728,2021-05-19 17:24:10:347
2.441,-8.6958,0.7268,2.2693,-9.5347,-0.3317,0,0,0,2.1285,0.6134,0.1324,154728,2021-05-19 17:24:10:347
2.441,-8.6958,0.7268,2.2693,-9.5347,-0.3317,0,0,0,2.1285,0.6134,0.1324,154729,2021-05-19 17:24:10:348
-1.3322,-7.7812,-1.1381,-3.1313,-9.036,-2.1716,0,0,0,-2.4802,1.7165,0.1982,154799,2021-05-19 17:24:10:418
3.99,-13.1656,-6.8456,1.2148,-8.6976,-4.3643,-0.4039,0.3365,0.9473,0.1463,0.9566,0.1758,155298,2021-05-19 17:24:10:917
-0.2668,-6.7304,-3.1205,0.7759,-8.7704,-4.3184,-1.8709,0.5032,0.3403,-0.4387,-0.4867,-0.6958,155579,2021-05-19 17:24:11:198
0.0491,-10.9391,-6.0269,3.1988,-9.1585,-1.4355,-5.8141,4.7247,4.3208,-1.3675,2.8601,-0.1188,156040,2021-05-19 17:24:11:659
-4.2171,-15.0879,-3.853,1.0969,-8.2231,-5.2294,-0.49,-7.4015,-2.495,-2.7247,-0.8172,0.3544,156567,2021-05-19 17:24:12:186
-1.215,-6.0503,-1.4423,0.2124,-9.3611,-2.9147,-2.4001,-2.2673,2.076,-0.0418,-0.9001,0.3239,157040,2021-05-19 17:24:12:659
0.1834,-4.523,-1.3825,0.5511,-8.3606,-5.0958,-2.1634,3.6548,3.6696,1.4477,0.3465,0.8929,157540,2021-05-19 17:24:13:159
-2.7951,-7.8963,-2.4407,0.5993,-9.7608,-0.7341,-2.0272,0.353,-0.1988,1.2134,1.0106,0.1156,158043,2021-05-19 17:24:13:662
-0.4941,-8.6839,-3.1349,-0.4378,-8.9245,-4.0413,-1.5838,0.1257,1.2559,-0.7788,0.9783,0.7304,158540,2021-05-19 17:24:14:159
-3.341,-18.1597,-2.4814,-0.2774,-9.5043,-2.4002,-2.8565,-6.4117,-1.7027,-0.2408,0.0199,-0.0457,159040,2021-05-19 17:24:14:659
1.148,-9.9622,-1.5308,-0.1493,-9.7821,-0.6768,0.0884,0.5252,0.5522,0.1758,0.4006,0.1109,159635,2021-05-19 17:24:15:254
0.0275,-11.3845,-4.351,1.4476,-9.0352,-3.5271,-0.847,-1.5074,-0.2213,-0.7782,0.5963,-1.166,160041,2021-05-19 17:24:15:660
-10.6044,-16.9962,-15.8764,-0.164,-9.3275,-3.0234,-4.7392,-2.8727,-3.2449,-1.9697,0.8285,0.1394,160540,2021-05-19 17:24:16:159
2.1033,-23.8122,-7.4034,0.9614,-8.8845,-4.0388,3.8274,-5.4196,-1.866,-0.5728,0.5415,0.3844,161040,2021-05-19 17:24:16:659
-5.7781,-4.317,-0.9132,-0.5093,-9.6929,-1.3998,-4.8835,-4.2819,-1.8396,-0.2191,0.8314,0.474,161540,2021-05-19 17:24:17:159
2.4075,-9.4379,-2.814,0.086,-9.7992,0.3735,1.6879,0.0635,-1.4136,0.4875,0.4168,0.1238,162041,2021-05-19 17:24:17:660
-2.1772,-5.8732,-2.7517,-0.0851,-8.779,-4.3696,0.3663,2.0084,2.6519,0.4676,1.1011,0.5818,162541,2021-05-19 17:24:18:160
-0.516,-10.6591,-3.4914,0.4155,-9.3888,-2.8015,-3.6024,1.819,-0.2159,0.1229,0.4864,0.0342,163039,2021-05-19 17:24:18:658
-0.7672,-6.6464,-3.4965,0.4509,-8.5778,-4.7317,-1.7892,3.4028,2.0754,0.3364,-1.1017,0.0047,163540,2021-05-19 17:24:19:159
2.4793,-7.4821,-5.3231,0.3964,-9.4604,-2.5523,2.0072,-3.7741,-3.0899,0.6394,0.1382,0.4508,164040,2021-05-19 17:24:19:659
1.354,-12.2749,2.3883,0.2102,-9.7601,-0.9313,2.4544,-1.691,3.8447,2.4274,-1.4874,-0.788,164540,2021-05-19 17:24:20:159
-1.3298,-6.4334,-4.0421,0.0744,-9.592,-2.0391,-0.8765,2.3643,-1.8285,0.4296,-0.2249,0.082,165039,2021-05-19 17:24:20:658
-8.0572,-2.7057,4.4282,-0.6987,-9.4529,-2.5151,-6.5456,-5.3954,1.2467,0.0444,1.879,0.9399,165542,2021-05-19 17:24:21:161
3.1208,-9.8593,0.5761,-0.2875,-9.7889,0.5152,2.5052,0.3008,-0.4748,0.4647,1.1249,0.2094,166040,2021-05-19 17:24:21:659
-0.3051,-3.7161,-1.6337,-0.6463,-8.7926,-4.2945,-0.1895,3.6315,4.0064,0.029,0.8152,0.4365,166540,2021-05-19 17:24:22:159
-2.5364,-9.0311,0.09,0.5713,-9.7813,-0.4134,3.2301,-1.489,-2.8333,0.7923,1.6146,-0.2393,167040,2021-05-19 17:24:22:659
-1.0714,-10.9223,0.5856,1.0831,-9.0227,-3.6862,-3.1232,-3.5313,6.9317,-2.9015,1.9023,0.0762,167540,2021-05-19 17:24:23:159
-7.8873,-17.1063,4.3636,0.4717,-9.5105,-2.3447,-6.7206,-4.8146,6.4129,0.6202,-0.4473,0.346,168040,2021-05-19 17:24:23:659
-2.17,-3.8692,-2.0862,-0.0745,-9.5097,-2.3938,0.9943,1.0243,-0.9637,-1.8441,-0.1962,0.3338,168545,2021-05-19 17:24:24:164
-0.4702,-3.3715,-1.0567,-0.3414,-8.5166,-4.8498,-1.4338,6.1718,3.0248,-0.3233,-0.0412,0.0925,169040,2021-05-19 17:24:24:659
3.2668,-7.451,-1.1812,0.7207,-9.6349,-1.6791,-3.7443,3.3942,0.1214,1.2619,0.1486,0.128,169542,2021-05-19 17:24:25:161
-1.1886,-1.3555,-0.2046,0.7221,-8.916,-4.0192,0.2886,-0.9202,2.8743,-2.074,-0.0308,-0.0122,170040,2021-05-19 17:24:25:659
0.9829,-13.5033,-9.8527,0.1263,-9.4986,-2.4355,-5.683,-1.5294,3.8307,0.6371,-0.312,0.3233,170541,2021-05-19 17:24:26:160
-6.1469,-9.9479,-7.267,0.5463,-9.482,-2.4418,3.4397,-2.1551,-5.1327,2.3447,-0.1063,-0.4607,171040,2021-05-19 17:24:26:659
3.2859,-9.5339,-1.5835,-0.0148,-9.8045,0.2033,-0.9899,1.6539,0.4248,0.7268,0.4129,0.5266,171790,2021-05-19 17:24:27:409
3.2859,-9.5339,-1.5835,-0.0148,-9.8045,0.2033,-0.9899,1.6539,0.4248,0.7268,0.4129,0.5266,171790,2021-05-19 17:24:27:409
0.9589,-9.7205,-1.6672,3.9724,-8.6642,-2.3071,0,0,0,-0.1778,0.7284,0.0421,171902,2021-05-19 17:24:27:521
0.3604,-9.955,0.4564,0.7846,-9.6746,-1.3989,0,0,0,0.1432,0.7878,0.0173,172478,2021-05-19 17:24:28:097
3.9562,-8.193,-0.4104,-5.1391,-7.3453,-3.9758,0.2558,2.1651,0.7952,1.056,0.3486,0.6632,173037,2021-05-19 17:24:28:656
3.9562,-8.193,-0.4104,-5.1391,-7.3453,-3.9758,0.2558,2.1651,0.7952,1.056,0.3486,0.6632,173038,2021-05-19 17:24:28:657
3.9562,-8.193,-0.4104,-5.1391,-7.3453,-3.9758,0.2558,2.1651,0.7952,1.056,0.3486,0.6632,173038,2021-05-19 17:24:28:657
3.9562,-8.193,-0.4104,-5.1391,-7.3453,-3.9758,0.2558,2.1651,0.7952,1.056,0.3486,0.6632,173039,2021-05-19 17:24:28:658
3.9562,-8.193,-0.4104,-5.1391,-7.3453,-3.9758,0.2558,2.1651,0.7952,1.056,0.3486,0.6632,173039,2021-05-19 17:24:28:658
3.9562,-8.193,-0.4104,-5.1391,-7.3453,-3.9758,0.2558,2.1651,0.7952,1.056,0.3486,0.6632,173039,2021-05-19 17:24:28:658
-0.7385,-8.5235,-4.0639,1.4773,-9.6946,-0.0408,0,0,0,0.2272,0.8673,0.7744,173519,2021-05-19 17:24:29:138
-0.7385,-8.5235,-4.0639,1.4773,-9.6946,-0.0408,0,0,0,0.2272,0.8673,0.7744,173520,2021-05-19 17:24:29:139
-0.7385,-8.5235,-4.0639,1.4773,-9.6946,-0.0408,0,0,0,0.2272,0.8673,0.7744,173521,2021-05-19 17:24:29:140
