ACCELEROMETER_X_~mean,ACCELEROMETER_X_~mad,ACCELEROMETER_X_~max,ACCELEROMETER_X_~min,ACCELEROMETER_X_~std,ACCELEROMETER_X_~energy,ACCELEROMETER_X_~iqr,ACCELEROMETER_X_~entropy,ACCELEROMETER_Y_~mean,ACCELEROMETER_Y_~mad,ACCELEROMETER_Y_~max,ACCELEROMETER_Y_~min,ACCELEROMETER_Y_~std,ACCELEROMETER_Y_~energy,ACCELEROMETER_Y_~iqr,ACCELEROMETER_Y_~entropy,ACCELEROMETER_Z_~mean,ACCELEROMETER_Z_~mad,ACCELEROMETER_Z_~max,ACCELEROMETER_Z_~min,ACCELEROMETER_Z_~std,ACCELEROMETER_Z_~energy,ACCELEROMETER_Z_~iqr,ACCELEROMETER_Z_~entropy,GRAVITY_X_~mean,GRAVITY_X_~mad,GRAVITY_X_~max,GRAVITY_X_~min,GRAVITY_X_~std,GRAVITY_X_~energy,GRAVITY_X_~iqr,GRAVITY_X_~entropy,GRAVITY_Y_~mean,GRAVITY_Y_~mad,GRAVITY_Y_~max,GRAVITY_Y_~min,GRAVITY_Y_~std,GRAVITY_Y_~energy,GRAVITY_Y_~iqr,GRAVITY_Y_~entropy,GRAVITY_Z_~mean,GRAVITY_Z_~mad,GRAVITY_Z_~max,GRAVITY_Z_~min,GRAVITY_Z_~std,GRAVITY_Z_~energy,GRAVITY_Z_~iqr,GRAVITY_Z_~entropy,LINEAR_ACCELERATION_X_~mean,LINEAR_ACCELERATION_X_~mad,LINEAR_ACCELERATION_X_~max,LINEAR_ACCELERATION_X_~min,LINEAR_ACCELERATION_X_~std,LINEAR_ACCELERATION_X_~energy,LINEAR_ACCELERATION_X_~iqr,LINEAR_ACCELERATION_X_~entropy,LINEAR_ACCELERATION_Y_~mean,LINEAR_ACCELERATION_Y_~mad,LINEAR_ACCELERATION_Y_~max,LINEAR_ACCELERATION_Y_~min,LINEAR_ACCELERATION_Y_~std,LINEAR_ACCELERATION_Y_~energy,LINEAR_ACCELERATION_Y_~iqr,LINEAR_ACCELERATION_Y_~entropy,LINEAR_ACCELERATION_Z_~mean,LINEAR_ACCELERATION_Z_~mad,LINEAR_ACCELERATION_Z_~max,LINEAR_ACCELERATION_Z_~min,LINEAR_ACCELERATION_Z_~std,LINEAR_ACCELERATION_Z_~energy,LINEAR_ACCELERATION_Z_~iqr,LINEAR_ACCELERATION_Z_~entropy,GYROSCOPE_X_~mean,GYROSCOPE_X_~mad,GYROSCOPE_X_~max,GYROSCOPE_X_~min,GYROSCOPE_X_~std,GYROSCOPE_X_~energy,GYROSCOPE_X_~iqr,GYROSCOPE_X_~entropy,GYROSCOPE_Y_~mean,GYROSCOPE_Y_~mad,GYROSCOPE_Y_~max,GYROSCOPE_Y_~min,GYROSCOPE_Y_~std,GYROSCOPE_Y_~energy,GYROSCOPE_Y_~iqr,GYROSCOPE_Y_~entropy,GYROSCOPE_Z_~mean,GYROSCOPE_Z_~mad,GYROSCOPE_Z_~max,GYROSCOPE_Z_~min,GYROSCOPE_Z_~std,GYROSCOPE_Z_~energy,GYROSCOPE_Z_~iqr,GYROSCOPE_Z_~entropy,ACCELEROMETER_XY_~correlation,ACCELEROMETER_YZ_~correlation,ACCELEROMETER_ZX_~correlation,ACCELEROMETER_XYZ_~sma,GRAVITY_XY_~correlation,GRAVITY_YZ_~correlation,GRAVITY_ZX_~correlation,GRAVITY_XYZ_~sma,LINEAR_ACCELERATION_XY_~correlation,LINEAR_ACCELERATION_YZ_~correlation,LINEAR_ACCELERATION_ZX_~correlation,LINEAR_ACCELERATION_XYZ_~sma,GYROSCOPE_XY_~correlation,GYROSCOPE_YZ_~correlation,GYROSCOPE_ZX_~correlation,GYROSCOPE_XYZ_~sma,Activity
-1.99388,0.08154312201780801,-1.8747,-2.2601,0.1607027753338442,3.9962177600000004,0.14610000000000012,2.3182653589504585,0.27532,0.09058699555069229,0.9876,-0.0204,0.42925550316798505,0.223209332,0.3759,-1.0,9.49446,0.09933434863987559,9.6067,9.3099,0.1191286405529749,90.156123998,0.12929999999999886,2.3218370041186973,-2.0559,0.1472224002976062,-1.8832,-2.2984,0.1676448627307142,4.24920865,0.19179999999999997,2.318133822254099,0.12706,0.1690166529096386,0.5729,-0.078,0.2672377462111219,0.073277054,0.2259,-1.0,9.58366,0.02965204437011404,9.624,9.5163,0.04327566290653486,91.84803722199999,0.042200000000001125,2.32191631583655,0.06202,0.06553101805794762,0.2239,-0.043,0.10132962054601803,0.012060633999999999,0.0738,-1.0,0.14830000000000002,0.1184599172585976,0.4147,-0.0054,0.16932966367414776,0.044930918,0.16670000000000001,-1.0,-0.0892,0.12305598413596497,0.0028,-0.2064,0.0825261473716058,0.013405091999999999,0.0871,-1.0,0.05676,0.08688049000442827,0.1513,-0.0087,0.06411495925289198,0.0065102799999999985,0.0721,-1.0,0.049280000000000004,0.02268381394313571,0.2968,-0.0349,0.13917441215970702,0.017924132000000002,0.0208,-1.0,0.0033000000000000004,0.019866869727975064,0.0485,-0.0303,0.028960317677815622,0.00068185,0.0152,-1.0,-0.8478271304559442,-0.9717534535137128,0.7308909801559544,11.77326,-0.8860178621295097,-0.9256234970888952,0.993441013887625,11.824139999999998,0.3132796865319515,-0.7896492749781646,-0.2436081552377175,0.32,0.21918676939658382,0.9189263525898619,0.3301020234097243,0.15058,Laying
-2.52134,1.0133586163485788,-1.2354,-3.6069,0.9102957832484999,7.020066126000001,0.9361000000000002,2.241593530182591,0.34286,0.24136764117271203,0.5866,0.164,0.17999496659629124,0.14347153,0.2693,2.160184005704574,9.48702,0.12246294324856438,9.7085,8.8897,0.3414593855790177,90.09682409,0.16400000000000148,2.3211693424285866,-2.29832,0.5663540474691401,-1.386,-2.8482,0.5959279922943711,5.56637896,0.6945999999999999,2.2802793573244853,0.61258,0.1528562887279275,0.9099,0.3814,0.19419540931752224,0.405423742,0.10939999999999994,2.264990904182913,9.4964,0.1546354113901347,9.7007,9.3397,0.1450413044618667,90.198442544,0.18440000000000012,2.3217936753038,-0.22302,0.6059395267032396,0.2041,-0.7587,0.40129990904559154,0.178571214,0.5117,-1.0,-0.26972,0.05174281742584553,-0.0362,-0.7328,0.26805922293403744,0.130233476,0.03770000000000001,1.8206580935070673,-0.009380000000000005,0.07131316671011946,0.3242,-0.45,0.2787774775694766,0.062261489999999996,0.0506,-1.0,-0.16863999999999998,0.14751892074130737,0.1379,-0.8896,0.411728105671692,0.16405547599999998,0.10629999999999999,-1.0,0.12186,0.2263933587658054,1.0109,-0.2578,0.5117353837678219,0.224348342,0.2254,-1.0,0.11008,0.2263933587658054,0.6563,-0.1256,0.3205781917099165,0.09433390800000001,0.21800000000000003,-1.0,-0.25040373980308606,0.48812523879276404,0.6468231113419868,12.35122,-0.866003680959899,-0.9036477939404115,0.99100247810078,12.4073,0.6107100863806849,0.9746178631226001,0.46720935476710845,0.8078799999999999,-0.9258565776536004,0.2030414022908424,0.16854293326415337,0.7476999999999999,Laying
-1.54306,0.1562662738304907,-1.0558,-1.828,0.29571975415923774,2.4509943020000002,0.18680000000000008,2.2992531514162216,0.27436,0.12424206591076942,0.492,0.1329,0.13626968848573773,0.09012895200000001,0.08860000000000001,2.1863649316956213,9.645760000000001,0.055004542306558685,9.7396,9.5732,0.07686620193557091,93.045412708,0.12809999999999988,2.321891478803539,-1.5753,0.005633888430320996,-1.2593,-1.7,0.17861941383847388,2.507094006,0.00529999999999986,2.3141085968733233,0.27876,0.04047504056520292,0.3733,0.2258,0.05845274159524086,0.08044051599999999,0.0519,2.297642098410648,9.6738,0.003854765768116116,9.7225,9.6545,0.027565920989511727,93.583014344,0.0037000000000002586,2.3219234146464323,0.03226,0.16175190203896117,0.2035,-0.1912,0.14983588688962335,0.019001342,0.12890000000000001,-1.0,-0.004380000000000001,0.09488654198435853,0.1187,-0.1056,0.09114804989685736,0.006665557999999999,0.12390000000000001,-1.0,-0.027999999999999997,0.05663540474691398,0.055,-0.0923,0.06156297588648554,0.003816,0.0828,-1.0,-0.012759999999999999,0.024462936605342434,0.0328,-0.1376,0.07070532511770242,0.004162212000000001,0.020800000000000003,-1.0,-0.00422,0.010822996195090893,0.1099,-0.1064,0.07679034444511887,0.004735214,0.012199999999999999,-1.0,-0.01612,0.03261724880712324,0.021,-0.0682,0.03363973840564163,0.00116516,0.024399999999999998,-1.0,-0.734231865612187,0.15886774499542017,0.3837147680290757,11.46318,-0.33799750775134824,-0.38936484597086707,0.9982831077186831,11.527859999999999,-0.6826511380133707,0.2214353165199893,-0.4203445667113336,0.23728,-0.8909386191514929,-0.948409440631562,0.9099802972465751,0.11498,Laying
-1.54834,0.06212103295538479,-1.4916,-1.6077,0.04553891742235421,2.39901579,0.05269999999999997,2.321429362955689,0.28828,0.06745840094200486,0.431,0.182,0.09321033740953844,0.090055892,0.07190000000000002,2.263046771749575,9.57536,0.051446296982143,9.6199,9.5205,0.04218812629164737,91.68894299999998,0.06460000000000043,2.321916889316246,-1.59076,0.008006051979930356,-1.5674,-1.6375,0.030091576894539795,2.5312417799999998,0.03330000000000011,2.321722521466827,0.3142,0.00756127131437856,0.3349,0.3025,0.014388710852609418,0.098887268,0.02080000000000004,2.3207269293156627,9.6716,0.0026686839933117647,9.6757,9.6642,0.004713809499757474,93.539864336,0.004799999999999471,2.3219279577885814,0.04244,0.006968230426976328,0.0812,0.0257,0.022882154618829056,0.0022200279999999998,0.015300000000000001,2.1733389733511737,-0.02596,0.09814826686507086,0.096,-0.1257,0.08593350918006316,0.006581576000000001,0.0926,-1.0,-0.09626,0.046108928995524226,-0.054,-0.1437,0.03821090158580402,0.010434045999999999,0.05990000000000001,2.2292226976829053,-0.00078,0.011860817748044816,0.0084,-0.0112,0.009225616510564484,6.8698e-05,0.017099999999999997,-1.0,-0.00556,0.011712557526194253,0.0103,-0.0202,0.013743289271495379,0.00018201600000000001,0.021400000000000002,-1.0,-0.0055,0.010822996195090893,0.0131,-0.0389,0.019831918717058115,0.000344894,0.007899999999999999,-1.0,0.2783676340393977,0.19514926119468393,0.9785271887072683,11.41198,0.6376002083600874,0.5744508847233241,0.9968383940938292,11.576559999999999,0.6689664190807514,0.10889141237642719,0.7941353923300807,0.20557999999999996,-0.44166227819625214,-0.644840442759805,0.610920286609238,0.0328,Laying
-1.68096,0.0425506836711107,-1.6101,-1.7729,0.08247556001628599,2.831068296,0.1532,2.320545642159581,0.26073999999999997,0.0674584009420049,0.3268,0.2035,0.04950508054735392,0.06994595,0.06339999999999998,2.3011078324584595,9.51838,0.037361575906341,9.5505,9.4786,0.02933610403581212,90.60024631,0.03950000000000031,2.3219226116047644,-1.70356,0.06152799206798229,-1.6307,-1.8027,0.08188542605372456,2.907480852,0.14619999999999989,2.320600472449522,0.27494,0.01097125641694148,0.2997,0.2425,0.029460278342201725,0.07628633000000001,0.053999999999999965,2.315208606608933,9.65332,0.010229955307688514,9.6655,9.6365,0.013757070909172461,93.186738428,0.024399999999999977,2.321926922707003,0.022600000000000002,0.013639940410251537,0.0334,0.0111,0.009013600834294803,0.000575756,0.011699999999999999,2.2265842005673973,-0.01422,0.021201211724630107,0.0271,-0.039,0.025865169630218933,0.0007374139999999999,0.022699999999999998,-1.0,-0.13492,0.027576401264204204,-0.1023,-0.1868,0.03230219806762382,0.019038152,0.022800000000000015,2.2902038931756237,-0.00322,0.006226929317723529,0.0078,-0.0099,0.007161494257485654,5.139799999999999e-05,0.007899999999999999,-1.0,0.01706,0.009933434863987534,0.0329,-0.0025,0.013284690436739577,0.00043223000000000003,0.011600000000000001,-1.0,-0.0015799999999999998,0.003706505546264005,0.0033,-0.0059,0.004278668017035208,1.7142e-05,0.0073,-1.0,0.9059086267964975,-0.3339228192472379,-0.03892066466960614,11.460080000000001,0.9882938879041392,0.987433259834542,0.9999559587307729,11.631820000000001,-0.032083958461213535,-0.7880868412589203,-0.3120630402064854,0.18258000000000002,-0.9363585595075068,0.8788320625219864,-0.8623717864988155,0.02838,Laying
-1.765,0.007116490648826764,-1.7406,-1.7753,0.014094325099131246,3.11538392,0.007199999999999873,2.3218911834335967,0.32106,0.03543419302228385,0.3615,0.2538,0.041864639016716707,0.10448164200000001,0.032399999999999984,2.3117294242920714,9.49924,0.01957034928427574,9.5277,9.4547,0.02827424623221587,90.236200124,0.02519999999999989,2.321922978945975,-1.78976,0.004447806655516645,-1.7805,-1.7949,0.005655793489865057,3.203266448,0.0042999999999999705,2.3219223268958755,0.31478,0.015122542628757202,0.346,0.2584,0.033384232805322926,0.099978054,0.013000000000000012,2.3151845184321065,9.636759999999999,0.0013343419966545657,9.6384,9.6352,0.001266096362841743,92.86714457999999,0.0015999999999998238,2.3219280849263138,0.02478,0.008006051979930253,0.04,0.0133,0.010035536856591181,0.000694618,0.008199999999999999,2.228909294901001,0.00628,0.006226929317723529,0.0307,-0.0079,0.016794106108989546,0.000265072,0.0215,-1.0,-0.13752,0.02194251283388292,-0.1074,-0.1821,0.02855682055131489,0.019564144,0.0242,2.297813644526834,0.00864,0.010822996195090893,0.023,-0.0044,0.010352439326071898,0.00016038799999999997,0.0098,-1.0,0.00334,0.0026686839933100833,0.0109,-0.0013,0.005448669562379426,3.4906e-05,0.008,-1.0,0.00452,0.0017791226622067232,0.0064,0.0027,0.0015594870951694342,2.2376e-05,0.0024000000000000002,2.2517936144529385,-0.1714716428131428,0.08607988939737041,0.5442823252611327,11.5853,0.25557382682780105,-0.5851637516251091,0.6342884818366027,11.741299999999999,-0.7400443555241625,-0.3912445163401178,0.6920664610066893,0.17506,-0.8562231987960977,-0.3861303817671502,0.7395090156853179,0.01906,Laying
-1.75086,0.04077156100890384,-1.7166,-1.7861,0.028819836918345013,3.066175206,0.04190000000000005,2.32177170317819,0.34668,0.0051891077647696114,0.3531,0.3328,0.00812939112111111,0.120239892,0.004699999999999982,2.3216081001190214,9.6048,0.14025416987062964,9.7372,9.4858,0.10676907323752538,92.261302748,0.16280000000000072,2.321856829067717,-1.77216,0.008747353089183075,-1.7463,-1.8069,0.03164574220965596,3.1413522279999997,0.057800000000000074,2.3217444551722064,0.33896,0.007709531536229104,0.3475,0.33,0.006823342289523503,0.11493112800000001,0.008000000000000007,2.3216940763925655,9.6392,0.0010378215529541362,9.6439,9.6325,0.006030754513326071,92.91420573600001,0.011000000000001009,2.3219278689809593,0.022699999999999998,0.015122542628757138,0.0516,0.0057,0.017879038005440898,0.000771018,0.014199999999999999,1.9812874111308934,0.00818,0.002223903327758402,0.0121,0.0056,0.0025897876360813834,7.2278e-05,0.0029,2.26599804488136,-0.0686,0.08302572423631373,-0.0077,-0.1469,0.05917258655830417,0.007507075999999999,0.0892,1.8295165196192702,0.00252,0.003558245324413445,0.0114,-0.0032,0.005521503418454072,3.074000000000001e-05,0.0037,-1.0,-0.00056,0.0017791226622067226,0.003,-0.0031,0.0022995651762887695,4.544e-06,0.0018,-1.0,0.00172,0.001779122662206722,0.0039,-0.0022,0.0024621129137389294,7.808e-06,0.0024000000000000002,-1.0,0.08509195214827042,-0.6589388002527657,0.31062044260080396,11.702340000000001,-0.7867513154978849,-0.8026750526007456,0.9996452529557047,11.75032,-0.16413654653792029,0.17826096161452992,-0.701380740787773,0.09948,-0.13889045331707606,0.18925113209756272,0.5132198100348282,0.00824,Laying
-1.70322,0.010674735973240475,-1.6903,-1.7178,0.01204852688090957,2.901074502,0.017900000000000027,2.321899234050743,0.36272,0.003558245324413382,0.3747,0.34,0.015906665269628313,0.13176821600000002,0.022799999999999987,2.320809066452638,9.58448,0.010674735973241792,9.6139,9.5493,0.023547335305719397,91.862700452,0.01440000000000019,2.3219246107069202,-1.72418,0.006375189539574045,-1.7164,-1.7406,0.009729953751174773,2.97287241,0.006800000000000139,2.321909751709986,0.34898,0.0008895613311033455,0.3503,0.3466,0.001564288975860915,0.12178899800000001,0.0019000000000000128,2.3219164887390247,9.64756,0.0010378215529541362,9.6489,9.6447,0.0016949926253524011,93.075416252,0.001200000000000756,2.3219280770733897,0.00774,0.030986386366767083,0.0347,-0.0108,0.01866823505315915,0.00033871000000000004,0.0215,-1.0,-0.00566,0.0037065055462640055,0.0013,-0.0097,0.004461277843846985,4.7958000000000004e-05,0.004900000000000001,-1.0,-0.0612,0.010081695085838093,-0.0296,-0.085,0.02038626988931521,0.0040779200000000005,0.012400000000000001,2.251259378480324,0.00019999999999999998,0.0019273828840572825,0.0023,-0.0026,0.0019710403344427026,3.148e-06,0.0025,-1.0,0.00346,0.0017791226622067221,0.0225,-0.0043,0.010803147689446811,0.000105338,0.0018,-1.0,0.0006,0.003558245324413445,0.0039,-0.0022,0.002652357441974969,5.988e-06,0.0043,-1.0,0.11329395535799872,-0.1490937700636682,0.4594979988242318,11.65042,0.8663010532964857,0.8604698851670778,0.9999272472274994,11.72072,-0.6494570490423164,-0.030511667745699078,-0.7039467190906261,0.08312,-0.7281585371016531,0.6737324131980774,-0.33043838704518635,0.009420000000000001,Laying
-1.68456,0.031875947697870555,-1.6137,-1.7274,0.04668375520456771,2.839485892,0.05259999999999998,2.3214822603760115,0.36944,0.0300968250356637,0.3974,0.34,0.023504531477993758,0.136927884,0.031100000000000017,2.3195828574826405,9.62088,0.01423298129765221,9.6391,9.5924,0.017928245870692174,92.56158911200001,0.014399999999998414,2.321926090096407,-1.69816,0.002372163549609031,-1.6744,-1.708,0.01349751829041169,2.883893132,0.0022999999999999687,2.3218915175394548,0.36119999999999997,0.008747353089183075,0.3722,0.3518,0.007666485505105968,0.13051246,0.006300000000000028,2.3216685062550826,9.65176,0.0007413011092510733,9.6555,9.6504,0.002117309613637137,93.156474684,0.0005999999999986017,2.321928067118998,0.0251,0.015567323294308821,0.0607,0.0019,0.022777510838544228,0.0010450619999999998,0.020899999999999995,1.829519960655324,0.0135,0.012750379079148177,0.0252,0.0013,0.009284395510748129,0.00025121,0.009600000000000001,1.9887691573287796,-0.04932,0.023721635496089633,-0.0152,-0.0791,0.027559880260988073,0.0030401,0.0388,2.118477398618053,-0.00016,0.0053373679866201675,0.0066,-0.0069,0.00516555902105474,2.1371999999999998e-05,0.0055,-1.0,-0.0042,0.00815431220178081,0.0073,-0.019,0.011815032797246059,0.000129316,0.0183,-1.0,0.00134,0.0028169442151606437,0.0039,-0.0004,0.001817415747703315,4.437999999999999e-06,0.0025,-1.0,0.811634831061076,-0.6197486632942477,-0.6187605567892426,11.674879999999998,0.8673055313970539,0.8265914630629234,0.9969758572834111,11.71112,0.5465174172079027,0.3807691401514801,-0.4632968508285121,0.08792000000000001,0.10756784566414179,-0.09663376100123477,0.9661834914590791,0.01482,Laying
-1.70588,0.046108928995524406,-1.6676,-1.743,0.03431657034145465,2.9109686760000004,0.061100000000000154,2.321694530013952,0.29042,0.08347050490186542,0.3771,0.1987,0.0800007937460623,0.089463878,0.12330000000000002,2.2781472647681706,9.618,0.019570349284273106,9.6822,9.5828,0.03858853456662978,92.50711526,0.025100000000000122,2.3219188168806952,-1.70288,0.03513767257858285,-1.6709,-1.7354,0.025070839634922477,2.900303132,0.025900000000000034,2.321803053670623,0.29488000000000003,0.07398185070342958,0.3711,0.2171,0.06619204634999586,0.090459324,0.09439999999999998,2.2928596805589874,9.65296,0.0016308624403576285,9.6567,9.6453,0.004820580877861036,93.17965535200001,0.005000000000000782,2.321927950951358,-0.0029600000000000004,0.014529501741354898,0.0179,-0.0233,0.0154999354837367,0.00020095999999999997,0.0147,-1.0,-0.00448,0.01630862440356162,0.0154,-0.0184,0.0149175064940492,0.00019809599999999998,0.024,-1.0,-0.03498,0.018680787953170575,0.031,-0.0625,0.03842657934294959,0.0024048819999999997,0.024599999999999997,-1.0,-0.0019999999999999996,0.005485628208470728,0.0078,-0.0215,0.01140942592771433,0.00010813999999999999,0.004900000000000001,-1.0,0.008,0.0028169442151606446,0.0128,0.0012,0.00501348182404205,8.4108e-05,0.0067,2.041453528357896,-0.00098,0.0035582453244134443,0.0021,-0.004,0.0024314604664686613,5.69e-06,0.003,-1.0,0.07693528311750221,-0.5611301816455158,-0.4592682262213271,11.6143,0.01100066769263508,-0.42235258526232605,0.9013701501264918,11.650719999999998,-0.011746368997650886,-0.35972201519518904,-0.755819877770179,0.0719,-0.5741600494495873,0.1353559298728259,0.6077522347082622,0.016819999999999998,Laying
-1.64384,0.10645083928870201,-1.5622,-1.7202,0.06876054828170003,2.7059923560000003,0.11140000000000017,2.320918513470263,0.32154,0.044329806333317553,0.3615,0.2921,0.027822706554179802,0.10400725400000002,0.029900000000000038,2.31763699954842,9.5895,0.05159455720399585,9.6403,9.5313,0.05263667922656219,91.960726746,0.09820000000000029,2.3219107012258546,-1.6616600000000001,0.05470802186285694,-1.6163,-1.6994,0.03662789920265697,2.762187238,0.06059999999999999,2.3216475324160584,0.31728,0.0013343419966550594,0.3237,0.314,0.0037505999520076744,0.10067785199999998,0.0014000000000000123,2.321847786218474,9.65956,0.009043873532884163,9.6673,9.6532,0.006237226947930743,93.307130516,0.010399999999998855,2.321927854287681,0.03674,0.0014826022185056033,0.0601,0.0258,0.015455031543157716,0.0015409139999999998,0.019399999999999997,2.2257216555532824,-0.00047999999999999985,0.010971256416941456,0.0117,-0.0213,0.013445519699885163,0.000144856,0.0149,-1.0,-0.04304,0.04418154611146694,0.0034,-0.116,0.04679287338901085,0.0036041000000000003,0.044899999999999995,-1.0,0.00278,0.004596066877367366,0.0072,-0.005,0.005172233560078276,2.9129999999999997e-05,0.0068,-1.0,-0.0012799999999999999,0.009043873532884172,0.0085,-0.0086,0.007075097172477563,4.1684e-05,0.0098,-1.0,-0.0039,0.009933434863987532,0.01,-0.0248,0.013063307391315568,0.00015172999999999999,0.0079,-1.0,0.5275297140057669,-0.31963921920011223,-0.9474841794145972,11.55488,0.2761278182069993,0.2603945907242421,0.9998598422451297,11.6385,-0.9766967787352909,0.44262736668392805,-0.42653035868291966,0.09158000000000001,0.20803925644336152,-0.22921493572770701,0.8482756928274516,0.019639999999999998,Laying
-1.64602,0.005337367986619908,-1.585,-1.6795,0.03574090093995954,2.71040377,0.0047999999999999154,2.321653948663014,0.29878,0.0051891077647696114,0.31,0.2765,0.014746762356531,0.089443462,0.019100000000000006,2.320506496095899,9.59308,0.048036311879580164,9.6438,9.5337,0.044117762862593286,92.02874098800001,0.05749999999999922,2.3219158857785214,-1.66958,0.03573071346598502,-1.6435,-1.7075,0.025836156834947437,2.7880313820000002,0.030000000000000027,2.3217901724515024,0.30908,0.008302572423631362,0.3151,0.3022,0.005521503418454067,0.095554836,0.00830000000000003,2.321743923750131,9.65848,0.00548562820847111,9.6628,9.6519,0.0043791551696651014,93.286251252,0.004900000000001015,2.321927976248027,0.03628,0.0514462969821444,0.0796,-0.0085,0.03509511361998989,0.002301572,0.043100000000000006,-1.0,-0.01794,0.005040847542919044,-0.005,-0.0313,0.009457430940799939,0.000393398,0.004700000000000001,2.145769074375211,-0.03886,0.03736157590634117,0.0025,-0.0859,0.034548342941449456,0.0024649700000000004,0.0406,-1.0,0.0020399999999999997,0.0028169442151606437,0.0084,-0.0026,0.004118616272487642,1.7731999999999996e-05,0.0031,-1.0,0.00508,0.010822996195090893,0.0177,-0.0043,0.00933820111156319,9.5568e-05,0.014,-1.0,0.0015599999999999998,0.017198185734664983,0.0271,-0.0126,0.016056556293302746,0.00020868399999999994,0.0159,-1.0,0.6524500465348333,0.2686382840486427,0.6686017600606611,11.53788,0.6243794957612712,0.5920092647978751,0.999159984845223,11.63714,0.34961024118623624,0.5797968738632467,-0.07456135157976679,0.09748000000000001,-0.8969339855312569,0.7993498607296206,-0.5349701378771552,0.022359999999999998,Laying
-1.62876,0.0425506836711107,-1.5706,-1.6987,0.057038565900625574,2.655461856,0.08620000000000005,2.3212226753805836,0.30024,0.012453858635447084,0.3244,0.2622,0.02329040575000789,0.090578012,0.011900000000000022,2.3183771381710874,9.65198,0.02312859460868616,9.7516,9.6055,0.05811503247869697,93.16341980600001,0.03110000000000035,2.321907219017367,-1.6447,0.03335854991637599,-1.6133,-1.6822,0.032238718957179426,2.705869558,0.05800000000000005,2.321706658655975,0.31298000000000004,0.0028169442151606628,0.3158,0.3105,0.002082546518087902,0.09795995,0.0024000000000000132,2.32190255720719,9.66262,0.0056338884303213255,9.668,9.6561,0.005568841890375015,93.36625007399999,0.009999999999999787,2.3219279032003413,0.02708,0.019422089062423386,0.0495,0.0012,0.022894256921769707,0.001152644,0.0405,1.7755422568506944,0.00326,0.006226929317723526,0.0192,-0.0201,0.01864773444684367,0.000288818,0.0298,-1.0,-0.01486,0.0305416057012154,0.0105,-0.0455,0.02255023281476269,0.0006276299999999999,0.0289,-1.0,0.0020399999999999997,0.005337367986620167,0.0066,-0.0044,0.004534644418253762,2.0612000000000002e-05,0.0060999999999999995,-1.0,0.0010400000000000001,0.006375189539574088,0.0097,-0.0141,0.00935777751391857,7.113599999999999e-05,0.008,-1.0,0.00268,0.003706505546264005,0.01,-0.001,0.0043860004559963285,2.2572e-05,0.0031000000000000003,-1.0,0.7549866279376278,0.3874046628030425,0.5109205580170375,11.58098,-0.9016790821631373,-0.9044721285981645,0.9999731044496675,11.620299999999999,0.37498651103985436,0.039623243570953794,-0.16185594103501022,0.06432,-0.029975825931018815,-0.7074006989732236,0.16257769242682388,0.01408,Laying
-1.67546,0.010674735973240146,-1.6017,-1.7023,0.04228484362038013,2.808596618,0.021600000000000064,2.3215567541045865,0.32538,0.005337367986620155,0.3424,0.2837,0.024453261541152328,0.106350514,0.015600000000000003,2.318573987072055,9.60698,0.012453858635447002,9.6319,9.5636,0.030873726694391805,92.29482726999998,0.045499999999998764,2.321922131795763,-1.68478,0.007413011092528181,-1.6676,-1.6939,0.010272633547440506,2.83856807,0.006299999999999972,2.321906599092286,0.32016,0.010378215529539223,0.3299,0.3124,0.007997061960495247,0.102553588,0.014100000000000001,2.321568406997679,9.65554,0.0005930408874034922,9.6582,9.6542,0.0015630099167956613,93.229454646,0.0007999999999999119,2.3219280797663555,0.02154,0.019422089062423386,0.0384,0.0004,0.015686554752398628,0.000660826,0.0221,1.9139544900224998,-0.00026,0.0050408475429190485,0.0112,-0.0082,0.008425437674091476,5.6858e-05,0.0117,-1.0,-0.07072,0.028910743260859243,-0.0217,-0.106,0.03313649045991443,0.0058797400000000005,0.0369,2.1750942643452644,0.0032400000000000003,0.002668683993310083,0.0059,-0.0002,0.002667958020659246,1.6192000000000004e-05,0.0042,-1.0,-0.0044599999999999996,0.005485628208470727,0.0042,-0.0196,0.010054750121211367,0.00010077,0.012199999999999999,-1.0,0.0015,0.000889561331103361,0.0021,0.0009,0.0006,2.5379999999999997e-06,0.0012,2.226960814271916,0.42435203762007834,0.29455669698336323,0.48618193714226043,11.60782,0.849211768341459,0.8011928713746053,0.9962800661614527,11.66048,0.305131219262635,0.3195894571205422,-0.07376720636295409,0.09944,-0.7272703216617795,-0.1989109600825212,0.45915265177122444,0.01212,Laying
-1.6556,0.0300968250356637,-1.6269,-1.6903,0.024747222066324903,2.7415013,0.02639999999999998,2.3217993504776793,0.32918000000000003,0.01067473597324031,0.3615,0.3148,0.018835657673678386,0.10864329800000001,0.010799999999999976,2.320075756635026,9.64386,0.035582453244135795,9.6774,9.5912,0.035602078591003575,93.005049706,0.04550000000000054,2.321920225186422,-1.67668,0.006671709983275132,-1.6587,-1.686,0.011575491350262382,2.811363016,0.013800000000000034,2.3219005452747017,0.33018,0.005930408874022413,0.3357,0.3251,0.004109987834531877,0.109032346,0.004200000000000037,2.3218386983586057,9.6566,0.0010378215529541362,9.6599,9.6549,0.0021412613105368083,93.249927228,0.002600000000001046,2.321928066514485,0.007600000000000001,0.004596066877367366,0.035,-0.0024,0.015536247938289349,0.00025086,0.0049,-1.0,0.0007400000000000001,0.004892587321068486,0.0132,-0.0101,0.008491937352571555,5.8237999999999994e-05,0.0054,-1.0,-0.02624,0.013936460853952662,0.0028,-0.0445,0.018182354083011363,0.0009530159999999999,0.0144,-1.0,-0.0002600000000000002,0.0017791226622067226,0.0084,-0.0044,0.0054118388741720685,2.3497999999999998e-05,0.0055,-1.0,0.0009,0.0019273828840572825,0.006,-0.0062,0.004462062303464621,1.6738e-05,0.0018999999999999998,-1.0,0.00084,0.0,0.0027,0.0002,0.0010830512453249845,1.6439999999999998e-06,0.0007,1.5134772425074636,0.27024637994050205,-0.2099066512408611,0.41691043527457916,11.62864,-0.8111801504838724,-0.8289247173122105,0.9994492174950202,11.663459999999997,0.1745585046854366,0.92993087607704,-0.16056572880287592,0.04174,-0.845516478910585,0.10191112569366395,-0.4652552408747078,0.00852,Laying
-1.64458,0.019570349284273765,-1.6077,-1.6712,0.02361952582081193,2.7050896819999997,0.014399999999999968,2.3218087250682418,0.3364,0.0017791226622067733,0.3436,0.3256,0.0066272166103123606,0.113200096,0.0024000000000000132,2.321702996182107,9.58112,0.07279576892862659,9.6391,9.5217,0.04846052001371851,91.79973919199999,0.06820000000000093,2.3219133330829953,-1.6568,0.012898639300998634,-1.6447,-1.6727,0.010908253755757625,2.745081432,0.011500000000000066,2.3219030981685536,0.3448,0.0023721635496089487,0.347,0.3422,0.001974841765813136,0.11889016,0.002799999999999969,2.3219091587947416,9.65952,0.0025204237714589166,9.6616,9.6568,0.0018939376969687386,93.30632949999999,0.002100000000000435,2.321928072702164,0.03094,0.022387293499434593,0.0508,-0.0009,0.02085456784495905,0.0013052140000000003,0.023500000000000004,-1.0,-3.4694469519536144e-19,0.015567323294308821,0.0252,-0.0182,0.01926694059782196,0.000296972,0.0303,-1.0,-0.04526,0.043291984780363585,0.0397,-0.1099,0.05504691635323455,0.0044725979999999995,0.030100000000000002,-1.0,0.00216,0.0,0.0041,-0.002,0.0023828554299411453,9.208e-06,0.0,-1.0,-0.0010400000000000001,0.0035582453244134443,0.0024,-0.0043,0.0027014810752622347,6.92e-06,0.0036,-1.0,0.00294,0.0019273828840572825,0.01,-0.0004,0.0041668933271683355,2.2534e-05,0.0024000000000000002,-1.0,-0.23017699809463427,-0.39251663494631184,0.7973116686944746,11.5621,-0.10282203496166145,-0.13769216772100953,0.9992955802995815,11.66112,0.29160382099055665,0.5534630704558584,0.8651682096375781,0.10872,-0.1327432490909055,0.12765635977121237,-0.9326621652543364,0.00826,Laying
-1.64624,0.0320242079197211,-1.5933,-1.6819,0.03475072661110846,2.711072228,0.03600000000000003,2.3216699116567545,0.34764,0.01230559841359654,0.3567,0.3376,0.008712232779259279,0.12091429199999999,0.015499999999999958,2.321565355533739,9.613,0.014232981297654844,9.6415,9.59,0.02366548119096699,92.410217044,0.03710000000000058,2.321924598379937,-1.67072,0.010526475751389932,-1.6534,-1.682,0.011419588433914784,2.7914096439999994,0.012800000000000145,2.321901100040533,0.34808,0.005930408874022413,0.3527,0.3424,0.00459641164388049,0.121176588,0.007800000000000029,2.3218273914007037,9.657,0.001630862440354995,9.6601,9.6553,0.002003746490951239,93.257652212,0.0023999999999997357,2.321928070043681,0.03086,0.011267776860642573,0.059,0.0104,0.01786303445666497,0.00120761,0.008899999999999998,2.1310200357059865,-0.0033399999999999997,0.012602118857297617,0.0107,-0.0147,0.012072820714315277,0.000127758,0.0223,-1.0,-0.02612,0.019866869727975068,0.0528,-0.0689,0.04646307135779985,0.0024093079999999998,0.0155,-1.0,0.0008200000000000001,0.004596066877367366,0.0066,-0.0087,0.006580045592547212,3.531e-05,0.0091,-1.0,-0.0014999999999999998,0.00815431220178081,0.0189,-0.0104,0.011853902311053521,0.00011466200000000001,0.0060999999999999995,-1.0,0.0025800000000000003,0.003558245324413445,0.0064,-0.0034,0.0037731949326797313,1.8046000000000003e-05,0.0030000000000000005,-1.0,-0.4582578306226778,0.41649452479374804,-0.27549187765727523,11.60688,-0.21343467039626318,-0.30184438747868086,0.9957625897652231,11.6758,0.49567319732063153,0.22739317018421287,0.8117978086618542,0.08888,-0.46894701125287747,0.5052866834114519,-0.7080572488174892,0.01858,Laying
-1.61154,0.007116490648827093,-1.6005,-1.6197,0.007702467137222954,2.5971086339999996,0.009600000000000053,2.3219149042177865,0.32586,0.008895613311033619,0.3388,0.2969,0.017314675856047665,0.10642457799999998,0.014400000000000024,2.3202690486721975,9.61342,0.008747353089181101,9.645,9.5996,0.018266827858169323,92.418111038,0.008399999999999963,2.3219260128233246,-1.64074,0.01749470617836582,-1.6247,-1.6524,0.011104638670393538,2.692126398,0.0118999999999998,2.321901641440347,0.32344,0.0014826022185056033,0.3312,0.3184,0.006346889001707844,0.10464566,0.010800000000000032,2.3217064216611565,9.66302,0.002372163549608702,9.6659,9.6612,0.0018498648599294095,93.373958258,0.0015999999999998238,2.3219280737392136,0.016139999999999998,0.016012103959860503,0.0384,-0.0228,0.023667762885410188,0.00070863,0.0162,-1.0,0.00306,0.028910743260859236,0.0331,-0.0283,0.024280094727986545,0.0004809819999999999,0.0303,-1.0,-0.038579999999999996,0.04848109254513319,0.0038,-0.0744,0.031146139407637666,0.0022644819999999995,0.035800000000000005,-1.0,0.0028799999999999997,0.007264750870677449,0.0157,-0.0142,0.01103118307345137,0.00010564400000000001,0.0068,-1.0,-0.00104,0.004447806655516806,0.0067,-0.0104,0.00621272886902366,3.196e-05,0.003,-1.0,-0.00036000000000000013,0.0026686839933100833,0.0045,-0.012,0.006662431988395829,3.564e-05,0.0024000000000000002,-1.0,-0.6155404770335526,-0.31488768318621535,-0.30123744179272155,11.550819999999998,0.1594709776485939,0.04377863468774312,0.9931321047979134,11.627199999999998,0.5377517253953941,0.43912297365251296,0.7522850121444964,0.08498000000000001,-0.22512266005545034,0.028012738259116876,0.9366822478341155,0.01712,Laying
-1.6184800000000001,0.05144629698214432,-1.5538,-1.7095,0.059434476526675974,2.622303476,0.05259999999999998,2.3211547489338553,0.33902,0.007116490648826846,0.3531,0.3304,0.00899677720075361,0.114999314,0.008399999999999963,2.3215240864315425,9.62108,0.01423298129765221,9.6678,9.6007,0.027096531143303116,92.565767744,0.01440000000000019,2.321923522295489,-1.63724,0.021942512833883127,-1.6118,-1.6844,0.029462569473825584,2.6812492519999997,0.029200000000000115,2.3217420759693383,0.33842,0.0019273828840572348,0.345,0.331,0.005016173840687726,0.11454822599999999,0.0020000000000000018,2.321801149021762,9.66304,0.00326172488070999,9.6673,9.6547,0.005147620809655392,93.37436324000001,0.004899999999999238,2.321927931098449,0.02122,0.027576401264204194,0.0498,-0.0169,0.025668599494323797,0.0009773899999999999,0.0249,-1.0,-0.01026,0.01704992551281442,0.0094,-0.025,0.013258883814258273,0.00024590600000000005,0.011899999999999999,-1.0,-0.024480000000000002,0.04507110744257029,0.0059,-0.0553,0.030082253904918758,0.001323224,0.0591,-1.0,0.00278,0.002668683993310084,0.0066,-0.0032,0.003676547293317468,1.8542e-05,0.0018000000000000004,-1.0,0.00336,0.012750379079148177,0.0201,-0.0098,0.011903486884102489,0.000124644,0.014700000000000001,-1.0,0.0003599999999999999,0.0026686839933100837,0.0021,-0.0016,0.0017155174146594957,2.4839999999999994e-06,0.0031,-1.0,0.4225155800279519,-0.5042815939430763,0.22605414538199511,11.578579999999999,-0.5787730189349033,-0.6031246800730266,0.999488100777314,11.6387,0.270978488560672,0.5544128330435919,-0.316440308282681,0.07103999999999999,0.389397773737053,0.8181918285370573,0.7057828315504402,0.014980000000000002,Laying
-1.6405,0.017791226622067238,-1.6233,-1.6544,0.012511194986890788,2.691365474,0.015600000000000058,2.321894514027869,0.34738,0.01601210395986055,0.3687,0.3112,0.022489264105345925,0.12107747799999999,0.016699999999999993,2.319465228277693,9.6084,0.0426989438929619,9.6845,9.4954,0.07003027916551521,92.325273952,0.031200000000000117,2.3218973859895833,-1.6675200000000001,0.013046899522849506,-1.6407,-1.6806,0.016020362043349713,2.780828272,0.011600000000000055,2.3218746673014334,0.35024,0.0023721635496089487,0.3623,0.3413,0.0075969072654600775,0.12271422800000001,0.0020000000000000018,2.321657700352739,9.65746,0.002223903327758487,9.6616,9.6555,0.002478507615481593,93.26653856600001,0.001900000000000901,2.3219280568811596,0.02402,0.008599092867332497,0.0941,-0.0343,0.04579057763339528,0.0022543820000000005,0.007100000000000002,-1.0,-0.01138,0.02268381394313571,0.0161,-0.0584,0.029768893160478774,0.000838454,0.028399999999999998,-1.0,-0.0513,0.030838126144916524,-0.0215,-0.1087,0.035290225275563206,0.00362801,0.032600000000000004,2.0696434352494864,0.0044599999999999996,0.002668683993310083,0.0096,-0.0008,0.0037819307238499225,3.1333999999999995e-05,0.0024,-1.0,0.00446,0.012602118857297617,0.039,-0.0104,0.020058863377569527,0.000341778,0.011,-1.0,-0.00416,0.004447806655516806,0.0057,-0.0248,0.011934110775420177,0.000131244,0.0037,-1.0,-0.274898420091812,-0.10436658015115297,0.6537001008668871,11.596279999999998,0.9480983182873843,0.9400131201466468,0.9996829411080873,11.67522,-0.294971191454773,-0.3832227286027171,0.5317242420906295,0.10977999999999999,0.7528614909790077,-0.9088843280388722,-0.7554286115772059,0.023759999999999996,Laying
-1.83634,0.16857187224408682,-1.6951,-1.968,0.12205110814736585,3.384061774,0.20950000000000002,2.319370582809706,0.3881,0.04625718921737479,0.4597,0.3268,0.05175582092866464,0.15276454199999998,0.05990000000000001,2.3117170242163962,9.57418,0.07101664626641874,9.7013,9.4894,0.08006707812827933,91.67005126199999,0.05269999999999975,2.321887811378567,-1.82934,0.025204237714595092,-1.7279,-1.874,0.058216303558367585,3.3491961459999997,0.017400000000000082,2.3213361553680367,0.39436,0.017198185734664983,0.408,0.3686,0.01583802386663185,0.155720484,0.013299999999999979,2.3209868543346097,9.62628,0.006375189539572399,9.6452,9.6173,0.01101666918809884,92.66536373200002,0.004799999999999471,2.3219273393811886,0.06672,0.1337307201092053,0.1986,-0.0581,0.10749677669586191,0.013696003999999998,0.1437,-1.0,0.05074,0.09206959776919788,0.1488,-0.0958,0.09370767311165078,0.009599449999999999,0.0756,-1.0,-0.16368,0.12676248968222897,-0.0624,-0.273,0.09243466341151463,0.033626476,0.15289999999999998,2.1306191192400092,0.0079,0.018977308396871704,0.0316,-0.0081,0.016760519085040296,0.00028714200000000005,0.0239,-1.0,0.00446,0.010081695085838093,0.0183,-0.0184,0.01527327731693496,0.00020651000000000003,0.0183,-1.0,0.0005000000000000007,0.017198185734664983,0.0381,-0.026,0.0243637025100866,0.000475122,0.0208,-1.0,0.43097591630947335,-0.4349528828105551,-0.7358809028478708,11.798620000000001,-0.22755412053327806,-0.2858657222525267,0.9981667449898864,11.84998,0.27495497758466503,-0.5596738168944818,-0.915258497298433,0.35450000000000004,0.7068884496202569,0.5688854387154244,0.975227518076622,0.04474,Laying
-1.71736,0.12068382058635588,-1.6125,-1.8208,0.08513931524272436,2.9551243319999996,0.1149,2.3205067590900232,0.27056,0.05322541964435117,0.3172,0.2215,0.03920654282132001,0.074432436,0.05510000000000001,2.3097555755475523,9.56054,0.03380333058192795,9.6403,9.3242,0.13335386383603623,91.418151694,0.03830000000000133,2.3218151425865696,-1.76918,0.12083208080820641,-1.6409,-1.9558,0.13066712287335325,3.1436569899999998,0.17179999999999995,2.3188113899358154,0.33416,0.021349471946480705,0.4007,0.2943,0.040568004634194174,0.112979516,0.02560000000000001,2.313667955423456,9.63916,0.019866869727973538,9.6625,9.6013,0.025539537975460807,92.91392732000001,0.032300000000001106,2.3219240417092077,0.010839999999999999,0.11534645259973585,0.1314,-0.1775,0.12226791484277467,0.012077059999999999,0.1275,-1.0,-0.02052,0.05619062408136232,0.0337,-0.0992,0.05922041033292492,0.003226716,0.0959,-1.0,-0.03552,0.031875947697870444,0.0281,-0.137,0.062135794836792754,0.004350356000000001,0.0349,-1.0,-0.01006,0.024462936605342434,0.02,-0.0441,0.024133855887528623,0.0005671580000000001,0.022,-1.0,-0.0328,0.014529501741354898,0.0024,-0.0819,0.031110689481269937,0.0018501400000000001,0.017700000000000004,-1.0,-0.00976,0.00815431220178081,0.0027,-0.0327,0.014055354851443632,0.00025330000000000003,0.0104,-1.0,0.6836989366789299,-0.4292014855261321,-0.7361385636537303,11.54846,-0.7401739721541329,-0.7776553981578246,0.9982629194904602,11.742499999999998,-0.3628967014261958,0.07167676146257529,0.16499943112753973,0.18919999999999998,0.761939368849203,-0.20013868705062365,0.23350732991836454,0.0643,Laying
-1.4181,0.10645083928870235,-1.2989,-1.5933,0.11352224451621803,2.02131745,0.09339999999999993,2.318282764142626,0.28514,0.006968230426976302,0.3184,0.2682,0.021279403187119707,0.08166707,0.022799999999999987,2.3187685524095056,9.6879,0.07635401425303964,9.7432,9.6235,0.05321907552748384,93.857672226,0.08620000000000161,2.3219106816631023,-1.41692,0.04655370966107604,-1.3316,-1.558,0.09567255092240412,2.0149848759999998,0.11420000000000008,2.319328386337767,0.30472,0.018977308396871756,0.3238,0.2889,0.016021454365943176,0.09305962799999999,0.02839999999999998,2.3203368349836757,9.69858,0.006375189539572399,9.7115,9.6767,0.014745066971702588,94.06262795,0.017300000000000537,2.3219267606213956,0.00042000000000000023,0.005485628208470728,0.0473,-0.0174,0.026492017665704515,0.000561638,0.004200000000000001,-1.0,-0.01938,0.03602723390968613,0.009,-0.0683,0.03196430822026342,0.0011929579999999998,0.0382,-1.0,-0.0273,0.04699849032662759,0.0121,-0.0839,0.04040476457053054,0.002051326,0.057800000000000004,-1.0,-0.00016000000000000012,0.0026686839933100833,0.0212,-0.0148,0.013122042523936584,0.000137776,0.0024000000000000002,-1.0,-0.009340000000000001,0.007264750870677449,0.0024,-0.0263,0.010919386429648875,0.000182622,0.0092,-1.0,0.00368,0.003558245324413445,0.0064,0.0009,0.0023370922104187504,1.7912e-05,0.0036000000000000003,2.068628653679002,-0.5442347272326239,0.454872910334267,-0.7583328500808961,11.39114,-0.9350188952465754,-0.9364392916167723,0.9998768902461925,11.42022,-0.9083861502077449,0.03322660175080894,0.38364029000392824,0.0795,-0.957904402627083,-0.7682718395899782,0.7299602490811598,0.02262,Laying
-1.32134,0.0300968250356637,-1.2761,-1.3503,0.03129765166909492,1.74672303,0.043099999999999916,2.3216031007350657,0.27366,0.017791226622067238,0.2873,0.255,0.013701934170036002,0.07503999,0.02030000000000004,2.3204746884604464,9.6982,0.017791226622065264,9.7205,9.6822,0.015448948184261346,94.055274176,0.019199999999999662,2.321926630800493,-1.32084,0.013343419966550264,-1.2876,-1.3395,0.021864880516481167,1.7450007639999998,0.026599999999999957,2.3217693914271162,0.29506,0.004151286211815722,0.307,0.287,0.009396701548947907,0.08713104199999999,0.01529999999999998,2.3213451006117007,9.71278,0.0016308624403576285,9.7169,9.7105,0.002673387364375255,94.338101046,0.0030999999999998806,2.321928051170971,0.005300000000000001,0.014232981297653777,0.0413,-0.0137,0.021355444270724038,0.00039293400000000006,0.0109,-1.0,-0.01526,0.019718609506124505,0.0121,-0.0544,0.02756162186809767,0.000840582,0.0334,-1.0,-0.03978,0.004596066877367364,-0.0064,-0.1162,0.04355148677140655,0.003099834,0.005499999999999998,1.7486500920911472,0.00472,0.009933434863987532,0.023,-0.0057,0.011454125894192013,0.00012723600000000003,0.011,-1.0,-0.0003200000000000003,0.010822996195090894,0.0213,-0.0227,0.01604811515412324,0.000206136,0.0109,-1.0,-0.0020800000000000003,0.0008895613311033613,-0.001,-0.0046,0.0014939879517586478,6.112e-06,0.0012000000000000001,2.059767530771954,-0.0868963768834396,0.04241061991628625,0.5598162471667704,11.293199999999999,0.9673545709481759,0.9613063854726058,0.9997126715227039,11.328679999999999,0.4261577843517154,-0.4715426199137414,-0.880127425125985,0.07366,-0.5503540353536454,-0.08496105603165974,0.5371566644393999,0.021840000000000002,Laying
-1.5792,0.07813313691524551,-1.4748,-1.6544,0.08174610082444297,2.49921858,0.13890000000000002,2.320373633867136,0.18964,0.007116490648826888,0.249,0.1724,0.033269926360002665,0.036848839999999994,0.004799999999999999,2.30534279859781,9.7092,0.10304085418613886,9.8342,9.6031,0.09077122341359074,94.275156172,0.09570000000000078,2.3218776988825915,-1.5713,0.0579697467435689,-1.4414,-1.6554,0.09784763666026887,2.476643018,0.1569999999999998,2.319670143436148,0.216,0.008599092867332491,0.2363,0.2009,0.013164725595317213,0.046794648,0.009300000000000003,2.3198046245245676,9.67712,0.010378215529541362,9.6973,9.6634,0.015538564927302632,93.646844652,0.02549999999999919,2.321926607309399,0.00596,0.011267776860642573,0.0183,-0.0042,0.01006146112649649,0.000116508,0.0169,-1.0,-0.04938,0.013788200632102102,-0.0237,-0.1022,0.030669969025090324,0.0031909020000000002,0.010700000000000001,2.127497311427338,0.01866,0.09014221488514061,0.0955,-0.0614,0.06424580141923673,0.0036502139999999997,0.0897,-1.0,-0.00554,0.003706505546264005,0.0017,-0.0179,0.008202621532168847,8.451799999999999e-05,0.0091,-1.0,0.02462,0.006226929317723528,0.0494,0.0067,0.02213022819584109,0.000997942,0.0403,1.8507776632732316,0.00602,0.0,0.0137,-0.0046,0.006607722754474495,7.117e-05,0.0,-1.0,0.5015632766050915,0.7996782945926919,0.45680580471943694,11.478039999999998,0.6437764891281089,0.6225161943202613,0.9996107270364459,11.464419999999999,0.562903797183102,-0.2783873020352028,0.23357665619510837,0.10908,-0.9407969489673603,0.5559342865785271,-0.6355827959791357,0.0387,Laying
-1.59884,0.032024207919720764,-1.3563,-1.6855,0.137014389755237,2.5713076999999998,0.03600000000000003,2.3175217559135723,0.22025999999999998,0.008895613311033619,0.2813,0.1951,0.03473280869725338,0.049479562,0.008400000000000019,2.308373476544589,9.63044,0.04966717431993779,9.6989,9.5792,0.053250286384206355,92.747643068,0.08619999999999983,2.3219104611167873,-1.6294199999999999,0.014974282406906576,-1.442,-1.6858,0.10517003850907349,2.663858126,0.020199999999999996,2.3194512863384924,0.23202,0.012453858635447042,0.2776,0.2152,0.02602858044534892,0.054375269999999996,0.011800000000000005,2.3149594596489314,9.66708,0.0028169442151619794,9.6961,9.6581,0.01629438553612845,93.45264813200001,0.0031999999999996476,2.3219264565626805,0.006859999999999999,0.017198185734664983,0.0416,-0.0328,0.026877927747503156,0.0006249980000000001,0.013,-1.0,-0.02324,0.022090773055733468,-0.0038,-0.0538,0.020667196229774372,0.0008818039999999999,0.026600000000000002,1.8449649897732112,-0.05506,0.026538579711250274,0.0137,-0.0893,0.041132991624728686,0.004385142,0.0295,-1.0,0.0014399999999999999,0.00815431220178081,0.0078,-0.0044,0.00568533200437758,2.7932e-05,0.0103,-1.0,-0.01058,0.0045960668773673665,0.0042,-0.0221,0.00966059004409151,0.000186598,0.0060999999999999995,-1.0,0.00196,0.0045960668773673665,0.0064,-0.0016,0.003712546296007634,1.4867999999999999e-05,0.0067,-1.0,0.9752060933575567,0.7545676378735904,0.8034443413217491,11.44954,0.98386575756165,0.9828368634842165,0.999959645750803,11.52852,0.8551401407973874,0.5829430607107386,0.8722128576288632,0.10375999999999999,-0.29388062418108285,-0.38620800875944034,-0.017079594669845655,0.02046,Laying
-1.38648,0.005337367986620238,-1.3683,-1.397,0.011991121715669432,1.9224418200000002,0.01309999999999989,2.3218848498204405,0.28252,0.014232981297653775,0.3089,0.2598,0.018305791433314223,0.080085632,0.015600000000000003,2.3195161268049165,9.66204,0.01423298129765221,9.6881,9.6067,0.03228580183300396,93.35585086,0.016799999999999926,2.321921643655989,-1.40612,0.003558245324413382,-1.4004,-1.4132,0.004756784628296707,1.977191556,0.0037000000000000366,2.3219214935135932,0.28865999999999997,0.011267776860642568,0.2981,0.2704,0.01125157766715406,0.08342587399999998,0.010399999999999965,2.321041807047217,9.70102,0.000889561331101288,9.7017,9.7,0.000687022561493006,94.10978941799999,0.0007999999999999119,2.321928091993045,0.01868,0.005337367986620166,0.0329,0.0071,0.012702047079112877,0.00047801599999999994,0.0215,2.056794855192951,-0.00636,0.009933434863987534,0.0112,-0.0239,0.013064570410082377,0.000176996,0.0115,-1.0,-0.028919999999999998,0.013936460853952656,0.0116,-0.0948,0.03978161635730755,0.002102428,0.0163,-1.0,0.0008199999999999998,0.002816944215160644,0.0096,-0.005,0.005391845695121476,2.3929999999999993e-05,0.0019000000000000002,-1.0,0.00434,0.003706505546264005,0.0085,0.0005,0.003404849482723135,2.811e-05,0.0049,1.9297038558087833,0.005,0.003706505546264005,0.0149,0.0002,0.005896609195122227,5.2816e-05,0.004200000000000001,1.5773196372669123,0.6885749359637352,-0.6846095698617023,-0.7010743172284718,11.331040000000002,0.3007959535253015,-0.2013560593944444,0.8722411217336505,11.3958,0.5768626251404351,-0.7299303457456573,-0.5831206335099332,0.06308,-0.7633280908815561,-0.5822563691788778,0.752116614884305,0.0128,Laying
-1.38434,0.03558245324413415,-1.3539,-1.4186,0.027043354081918186,1.9169823099999999,0.03950000000000009,2.321708119952135,0.29832000000000003,0.03365507036007716,0.3292,0.255,0.02857213677693707,0.08964791600000001,0.02510000000000001,2.316540130561602,9.6836,0.010674735973241792,9.7109,9.6702,0.01630751360569754,93.772321708,0.011900000000000688,2.3219264591972277,-1.39496,0.009043873532884163,-1.3854,-1.4066,0.010414557119724338,1.9460001720000002,0.01970000000000005,2.3218959477769268,0.29844000000000004,0.0010378215529538895,0.3009,0.2931,0.0032276926743418357,0.089074768,0.002599999999999991,2.3218603642715894,9.70236,0.0013343419966545657,9.7037,9.7007,0.0014258330898108847,94.13579119599999,0.0025999999999992696,2.3219280824243773,0.01064,0.017049925512814423,0.0376,-0.0131,0.019137737588335774,0.0004062120000000001,0.0183,-1.0,-0.00011999999999999945,0.03484115213488165,0.0315,-0.0382,0.026750457940005436,0.000572484,0.0253,-1.0,-0.01874,0.006375189539574086,0.0099,-0.0305,0.016734485352110473,0.000575222,0.011100000000000002,-1.0,0.0027400000000000002,0.005485628208470728,0.0114,-0.0057,0.006310546727503094,3.9366e-05,0.0049,-1.0,-0.00508,0.0019273828840572838,0.0103,-0.0111,0.009126992933053033,9.244799999999999e-05,0.0074,-1.0,9.999999999999999e-05,0.0008895613311033613,0.0009,-0.0004,0.0005385164807134503,2.42e-07,0.0006000000000000001,-1.0,0.35331409463607943,-0.8034609410022263,-0.5400162651629875,11.366260000000002,0.7977988457503236,0.7734426761410774,0.9991635931303382,11.39576,0.31738576838323035,-0.7503231060374498,-0.6388336946241446,0.058620000000000005,-0.6721523719148259,0.11342744734554833,-0.5671897852785404,0.01472,Laying
-1.38552,0.014232981297653857,-1.3575,-1.4102,0.019391931311759533,1.919966508,0.01429999999999998,2.3218149284525995,0.30502,0.012453858635447084,0.3352,0.2885,0.018876095994670085,0.09332224599999998,0.01789999999999997,2.3197512915656255,9.64286,0.05856278763097174,9.736,9.5744,0.06127200013056532,92.98775238600001,0.05149999999999899,2.3219048182626425,-1.39328,0.0014826022185054388,-1.3792,-1.4001,0.008120775825005875,1.9412819159999999,0.0017000000000000348,2.3219084472063973,0.31179999999999997,0.005930408874022413,0.3324,0.3025,0.011964739863448757,0.097333764,0.005599999999999994,2.321089931030572,9.70216,0.0002965204437004293,9.7045,9.7005,0.0014518953130303017,94.131910352,0.0002999999999993008,2.321928081964646,0.00776,0.01571558351615938,0.0217,-0.0137,0.014715739872666955,0.00023346,0.019600000000000003,-1.0,-0.00678,0.018384267509469462,0.0087,-0.0231,0.012656500306166787,0.00017411799999999996,0.0155,-1.0,-0.05928,0.05856278763097128,0.0315,-0.1261,0.059868205251201574,0.00638148,0.0512,-1.0,0.00094,0.003706505546264004,0.0066,-0.0038,0.00400349847008838,1.3705999999999999e-05,0.0043,-1.0,0.00166,0.0019273828840572825,0.0073,-0.0043,0.0041979757026452645,1.6854e-05,0.0025,-1.0,-0.00146,0.000889561331103361,0.0009,-0.0028,0.001645600194457937,4.298e-06,0.0024,-1.0,0.42954677166264277,-0.29064147499798365,0.6495374686540909,11.333400000000001,-0.6305128368499224,-0.7794353532608904,0.9775653287392041,11.40724,0.5191872289071657,0.2557626817205166,0.3368096910371379,0.0965,0.306248930535754,0.8463867251711609,-0.24430197848700236,0.008220000000000002,Laying
-1.3829,0.012453858635447002,-1.3647,-1.4066,0.0208066095267826,1.912758742,0.0383,2.321797658046106,0.33376,0.01067473597324031,0.346,0.3172,0.010779981447108337,0.111488704,0.007199999999999984,2.3213224887597517,9.583260000000001,0.023128594608688793,9.6438,9.5397,0.038241704982911295,91.84004217000002,0.018000000000000682,2.321918912993299,-1.40752,0.0013343419966548949,-1.4026,-1.4097,0.002850789364369076,1.981119052,0.0013000000000000789,2.3219257257770654,0.33304,0.0035582453244134642,0.3357,0.3304,0.0024865638942122422,0.110920588,0.004599999999999993,2.3218959201085947,9.699399999999999,0.00029652044370306294,9.7,9.699,0.0003807886552931243,94.078360476,0.0003000000000010772,2.321928093997938,0.02462,0.021794252612032355,0.0442,0.0022,0.0197936100800233,0.0009195739999999999,0.0362,1.857644706285571,0.0007199999999999999,0.013491680188400978,0.0153,-0.0184,0.01287854805480804,0.000133204,0.012,-1.0,-0.11614,0.022832074164986244,-0.0552,-0.1603,0.03854507750673229,0.014677078,0.01769999999999998,2.251004615660604,0.0034799999999999996,0.0053373679866201675,0.0157,-0.0032,0.0073903315216571975,5.5803999999999996e-05,0.0049,-1.0,-0.0027400000000000002,0.005337367986620167,0.0048,-0.0123,0.007746483072982216,5.5514e-05,0.012199999999999999,-1.0,0.00072,0.003706505546264005,0.0039,-0.0028,0.0026432934002868468,6.107999999999999e-06,0.0031000000000000003,-1.0,0.5648368284447286,-0.5305390455979387,-0.4744368264845542,11.29992,0.29391973788871273,0.05280637797594723,0.9695561679312521,11.43996,0.6220535074983471,-0.47870524211140864,-0.3958031199008557,0.15076,-0.46723023177885104,-0.108247478257257,0.8977817509691158,0.012939999999999998,Laying
-1.425,0.008895613311033619,-1.3862,-1.4449,0.022608184358767047,2.0310339040000005,0.006000000000000005,2.321782004805075,0.32273999999999997,0.03543419302228385,0.3615,0.2873,0.031040666874279612,0.10493192600000001,0.04309999999999997,2.316614366424722,9.63452,0.012305598413596786,9.6798,9.5732,0.038598018083834416,92.82516747599999,0.010699999999999932,2.3219188255259473,-1.43526,0.0038547657681147988,-1.4271,-1.4405,0.00506635963982026,2.059991802,0.0032000000000000917,2.3219208979961,0.33108,0.002668683993310119,0.3379,0.3277,0.004153552696186719,0.109627768,0.0037000000000000366,2.321837601166345,9.69538,0.0005930408874008586,9.6967,9.6947,0.0008043631020875666,94.000393862,0.0006999999999983686,2.321928090915457,0.00196,0.003558245324413445,0.0099,-0.0178,0.011230004452358867,0.000104732,0.0027,-1.0,-0.0057599999999999995,0.031875947697870444,0.0332,-0.0422,0.03240174378023504,0.0008730760000000001,0.045899999999999996,-1.0,-0.06828000000000001,0.05826626718727015,-0.017,-0.1223,0.04131751444605544,0.0060278680000000005,0.04719999999999999,2.0937618429741685,0.0035,0.0010378215529539216,0.0102,-0.0105,0.008054501846793507,6.415e-05,0.0013,-1.0,0.0037199999999999998,0.00815431220178081,0.0311,-0.0135,0.016683884439782,0.00023651999999999996,0.007899999999999999,-1.0,0.0023,0.002668683993310084,0.0057,-0.0028,0.003513545218152173,1.5166000000000002e-05,0.0043,-1.0,0.4080556694454481,-0.07091053920357154,-0.1960765531846728,11.38226,-0.29481939395105045,-0.45884952851052374,0.9842479215051688,11.461719999999998,0.30168460993198276,-0.21002913255808134,-0.6725199929041766,0.10575999999999999,-0.8248786141506103,0.17178559772714305,-0.27835830243038573,0.021759999999999998,Laying
-1.42096,0.023128594608687478,-1.3946,-1.4569,0.02417815129409198,2.019594988,0.025100000000000122,2.321761406582235,0.33183999999999997,0.008895613311033619,0.3484,0.3172,0.01139684166776042,0.11022169599999998,0.00720000000000004,2.3212488633411765,9.61486,0.08702875022627879,9.7097,9.5181,0.07858366878684102,92.450473134,0.1125999999999987,2.321889543970455,-1.44348,0.017939486843917784,-1.4223,-1.4853,0.026499283009168425,2.08419628,0.030399999999999983,2.3217344643883013,0.34212000000000004,0.0019273828840573172,0.3467,0.3397,0.002758985320729344,0.11705218400000002,0.0020000000000000018,2.3218906566163353,9.69376,0.0026686839933091314,9.697,9.6875,0.00400162467005563,93.96899574799998,0.004699999999999704,2.3219279965394914,0.022340000000000002,0.022239033277584027,0.0374,0.0004,0.01578458108408329,0.000698398,0.023,1.9297539576858953,-0.0119,0.00830257242363137,0.0011,-0.0263,0.010382677881933929,0.00022785,0.0104,-1.0,-0.054,0.028614222817158114,0.004,-0.0945,0.04629562614329781,0.0046306279999999995,0.0789,-1.0,-0.00028,0.004596066877367366,0.0066,-0.0118,0.007870006353237587,4.9628e-05,0.0103,-1.0,0.0016600000000000002,0.011712557526194257,0.017,-0.0159,0.012468881264973215,0.00012713400000000002,0.0122,-1.0,-1.6263032587282566e-20,0.0028169442151606433,0.0027,-0.004,0.002680485030736042,5.748e-06,0.0031,-1.0,0.00921051707688425,-0.5943888489216742,-0.07879993828760129,11.36766,-0.18116939906278817,-0.2021208656330069,0.999771929590974,11.47936,0.22176971194408596,-0.19194979091739411,-0.6535756177709257,0.09028,-0.8606577965980344,-0.4673477475879029,0.5347128616306454,0.018179999999999998,Laying
-1.43388,0.019422089062423223,-1.409,-1.4688,0.023085211716594695,2.056438196,0.022699999999999942,2.3217788946252287,0.33784000000000003,0.007116490648826846,0.3448,0.3304,0.0061423122681934636,0.114166048,0.008400000000000019,2.3217374268841064,9.6587,0.031875947697869896,9.6905,9.6295,0.026839429949236954,93.29106197399999,0.04069999999999929,2.321923638457476,-1.4665,0.008895613311033619,-1.4501,-1.4801,0.011120926220418896,2.1507211899999996,0.008500000000000174,2.321894880345354,0.34612,0.002668683993310119,0.3513,0.3382,0.005736026499241441,0.11982537600000001,0.007800000000000029,2.3217691912783103,9.6902,0.0014826022185047802,9.6925,9.6884,0.0015231546211731096,93.89997789600001,0.0009999999999994458,2.3219280806297427,0.0195,0.006078669095872967,0.0297,0.0106,0.008789482351083027,0.00044205400000000005,0.0139,2.2057924965464686,0.00396,0.007709531536229133,0.0349,-0.0145,0.02263179179826467,0.00042544,0.0339,-1.0,-0.01434,0.04166112234000742,0.0489,-0.0674,0.04570692507706026,0.0018769340000000002,0.054900000000000004,-1.0,0.00326,0.004447806655516806,0.0072,-0.0014,0.003419502887847881,1.9982e-05,0.0042,-1.0,0.0015199999999999999,0.002668683993310083,0.0048,-0.0031,0.0032995454232363584,1.1019999999999998e-05,0.0043,-1.0,0.00146,0.0026686839933100837,0.0045,-0.001,0.0021640240294414476,5.8779999999999995e-06,0.0025,-1.0,-0.2226146793617744,-0.837093379627462,-0.19046345625838038,11.430420000000002,0.737342114123446,0.6781616287831977,0.996228196550501,11.50282,0.1326903772238277,-0.07062297825455582,-0.8962943959390662,0.07572,0.09625265969349456,0.763063648743876,0.5906171734394452,0.00872,Laying
-1.5215,0.014232981297653857,-1.5107,-1.5395,0.011603447763488277,2.315069962,0.01200000000000001,2.321894581550914,0.32922,0.01067473597324031,0.3424,0.3053,0.014308109588621401,0.108549586,0.007199999999999984,2.3208225428756686,9.638819999999999,0.028465962595307055,9.6714,9.5948,0.030725754669332576,92.90760624999999,0.03829999999999956,2.3219222286384373,-1.53118,0.006078669095872957,-1.5241,-1.5367,0.004979658622837494,2.34453203,0.005800000000000027,2.3219219894814267,0.33328,0.0051891077647696114,0.3416,0.3271,0.005717254585900479,0.111101708,0.006599999999999995,2.321758635164495,9.68064,0.000741301109253707,9.6817,9.6798,0.0007162401831785809,93.71479122,0.000600000000000378,2.3219280917284326,0.00632,0.012009077969895376,0.0243,-0.0046,0.011578298666038978,0.00014718799999999997,0.0122,-1.0,-0.00012000000000000018,0.010822996195090894,0.0132,-0.0108,0.009203640584029778,6.778e-05,0.0089,-1.0,-0.047,0.015715583516159388,-0.0093,-0.0861,0.027958183059705433,0.0028343279999999997,0.0187,2.091421312509712,0.00656,0.002668683993310083,0.009,0.0041,0.002337306141693894,4.7403999999999995e-05,0.004299999999999999,2.2454321672229134,0.00298,0.00815431220178081,0.0183,-0.008,0.009929098649927897,8.774999999999999e-05,0.0079,-1.0,0.0007199999999999999,0.0019273828840572825,0.0045,-0.0016,0.0024242524621004304,5.219999999999999e-06,0.0025,-1.0,-0.5493201487759622,-0.5864408403121055,0.3218570927738732,11.48954,0.5267127709757675,0.349456738813112,0.9803367401033367,11.5451,0.3718522011695073,-0.7638727633811994,0.06236326542720267,0.06304000000000001,-0.7391410473318163,-0.5754728140267013,0.8940704471737291,0.015260000000000001,Laying
-1.47054,0.026686839933100857,-1.4437,-1.4976,0.023517716725906856,2.1629303579999997,0.03589999999999982,2.321780618394077,0.3639,0.016012103959860465,0.4094,0.3412,0.026674800842742943,0.13299244600000001,0.01200000000000001,2.318900754087265,9.65654,0.028465962595307055,9.6822,9.6223,0.023007781292423785,93.249188258,0.02039999999999864,2.321924817878261,-1.49738,0.016456884625412345,-1.4799,-1.5146,0.015752047485961936,2.242345366,0.025600000000000067,2.321864272074392,0.35312,0.0017791226622067733,0.3594,0.3477,0.004196665342864495,0.124707824,0.0015999999999999903,2.3218466781504246,9.685220000000001,0.0023721635496113357,9.6879,9.6827,0.002381596103456618,93.80349098600001,0.0038000000000000256,2.3219280599927825,0.02684,0.004744327099217929,0.0473,0.0159,0.012029671649716795,0.000836156,0.004400000000000001,2.2170195557522443,0.01082,0.009043873532884172,0.0501,-0.0065,0.022994064451505737,0.0005400540000000001,0.0133,-1.0,-0.02868,0.03350681013822661,-0.0043,-0.0604,0.022407074775614953,0.001224204,0.025500000000000002,1.9345937134029154,0.00338,0.0017791226622067221,0.0053,0.0017,0.0015530614926653743,1.3354e-05,0.0024000000000000002,2.1993664050989583,-0.0008999999999999998,0.004596066877367366,0.0079,-0.0098,0.00649884605141559,3.4597999999999996e-05,0.0049,-1.0,-0.00158,0.003706505546264005,0.0021,-0.0101,0.005026629089161045,2.2709999999999998e-05,0.0037,-1.0,0.4323598787855831,0.5135499900851836,0.3014274047434342,11.490979999999999,0.5750152593546212,0.5364810179805758,0.9988533947239587,11.535720000000001,0.2376315086840027,0.5300247415328759,0.16781317598680456,0.06958,0.011889301626370252,-0.07048335194352098,0.09453461719220618,0.01142,Laying
-1.47458,0.028317702373456842,-1.4281,-1.5107,0.03934472010321079,2.175624582,0.0694999999999999,2.3215161195104046,0.35888,0.008747353089182994,0.3735,0.3496,0.009207714157161912,0.12886268,0.007199999999999984,2.3215504426624496,9.6532,0.023128594608688793,9.7025,9.6199,0.03439447630070882,93.185216624,0.04190000000000005,2.321920773080707,-1.49278,0.0032617248807122945,-1.4661,-1.5053,0.016941576077803434,2.228621742,0.018199999999999994,2.3218535481825593,0.36072,0.014974282406906576,0.373,0.3492,0.010862642404129857,0.130213316,0.01940000000000003,2.321404956643118,9.68566,0.000741301109253707,9.6893,9.684,0.0022545509530722857,93.81201370200002,0.0022999999999999687,2.3219280636216912,0.01534,0.016753405069113297,0.0341,-0.0093,0.019124408487584656,0.0005279099999999999,0.0299,-1.0,-0.0013599999999999997,0.012009077969895376,0.0268,-0.0152,0.016641304035441454,0.000223396,0.0098,-1.0,-0.02888,0.019422089062423386,0.0006,-0.0658,0.02455620084622212,0.0013164599999999998,0.017200000000000003,-1.0,0.0020599999999999998,0.0,0.0072,-0.002,0.0032898328225002558,1.2902000000000001e-05,0.0,-1.0,0.00214,0.0053373679866201675,0.0067,-0.0037,0.004413955142499751,2.0166e-05,0.0067,-1.0,0.00318,0.0019273828840572825,0.0076,-0.0004,0.004061034350999755,2.3306e-05,0.0074,-1.0,0.4919757955612052,-0.23499776126485736,-0.03423632488430385,11.48666,0.8748261299274884,0.8302647549015373,0.9963439159803754,11.539159999999999,-0.6576705370587669,0.13423926416523013,-0.5027087526708796,0.060419999999999995,0.18590094066429247,-0.9255951558635556,-0.058831788840062,0.0101,Laying
-1.4705000000000001,0.005337367986620238,-1.4509,-1.4832,0.011977061409210524,2.16248501,0.0048000000000001375,2.3218897298254797,0.35434,0.01067473597324031,0.3723,0.3376,0.012687907628919751,0.125685622,0.008299999999999974,2.3211891588420133,9.62472,0.005337367986620896,9.6379,9.5828,0.023623335920229045,92.63568152799999,0.007200000000000983,2.321924614722805,-1.48726,0.007857791758079484,-1.4787,-1.4933,0.0060508677063707585,2.2119715980000003,0.008199999999999985,2.3219185387480943,0.36004,0.0031134646588617506,0.3633,0.3556,0.003589289623309885,0.12963910800000003,0.006300000000000028,2.3218706894210728,9.68652,0.000741301109253707,9.6878,9.6857,0.0008348652585891731,93.82867026800002,0.0008999999999996788,2.321928090600647,0.01678,0.022683813943135712,0.0494,-0.0253,0.032267274443311754,0.00111451,0.044700000000000004,-1.0,-0.013600000000000001,0.0075612713143785705,0.0079,-0.0284,0.017239924593802608,0.00042273200000000004,0.0286,-1.0,-0.05296,0.008302572423631383,0.0011,-0.0858,0.04100832842240707,0.0041501080000000004,0.0627,-1.0,0.00116,0.005485628208470728,0.009,-0.0081,0.006265221464561328,3.274799999999999e-05,0.0037,-1.0,0.0007800000000000003,0.011712557526194257,0.017,-0.0135,0.01141827482590956,0.00010491000000000001,0.0097,-1.0,0.00124,0.007264750870677449,0.007,-0.0034,0.0046618665789574035,1.8924000000000004e-05,0.007899999999999999,-1.0,0.9189356618621135,-0.3192899449711865,0.03991155027794478,11.44956,0.7114041218944128,0.6128667219501058,0.9910605149132946,11.533820000000002,0.4406236611341299,0.1334230595774053,-0.4610312559264387,0.10174000000000001,0.3570339214259377,0.5643571784223749,0.4306067107555703,0.01678,Laying
-1.4727,0.044478066555168096,-1.4317,-1.506,0.03253052412734847,2.169691878,0.047900000000000054,2.3216465037312717,0.35984,0.01067473597324031,0.3723,0.34,0.012331990917933725,0.129606488,0.008400000000000019,2.321244456607593,9.65844,0.010674735973239159,9.6822,9.6462,0.014559120852578874,93.28563280799999,0.013199999999999434,2.3219267841826077,-1.48616,0.016605144847262887,-1.4703,-1.5048,0.015580051347797266,2.208865736,0.02639999999999998,2.3218647208689926,0.36928,0.004151286211815639,0.3768,0.3647,0.00468636319548539,0.136385288,0.003599999999999992,2.3218354496813243,9.68634,0.002372163549608702,9.6888,9.6834,0.0025314027731675225,93.825187722,0.0045000000000001705,2.321928055473703,0.0056,0.009636914420286413,0.0206,-0.0056,0.010062057443684169,0.000112356,0.0098,-1.0,-0.00204,0.010229955307688655,0.0258,-0.0165,0.016433593642292608,0.000220212,0.0078000000000000005,-1.0,-0.03758,0.006671709983275209,-0.027,-0.0584,0.012291135016750894,0.001533114,0.006799999999999997,2.265016599234925,0.00532,0.0,0.0078,0.0011,0.0024983994876720574,3.3296e-05,0.0,2.1547450647744544,0.00274,0.0008895613311033616,0.0042,0.0005,0.001420563268566381,9.122e-06,0.0012000000000000001,2.1239438335544594,0.00086,0.0017791226622067226,0.0027,-0.0016,0.0016349311912126456,2.878e-06,0.0013,-1.0,0.2578607533279571,-0.6936613366689162,0.43858331139234796,11.490979999999999,-0.768848025669024,-0.7965052704275273,0.9988872750501343,11.54178,0.2843414652152464,0.002406089268127687,0.021548568843982985,0.05822000000000001,0.23005608557451537,-0.7289485858662209,0.26831761972515666,0.00956,Laying
-1.45688,0.038992438346697314,-1.4186,-1.5012,0.03270698702112439,2.123355132,0.03709999999999991,2.321637763098452,0.38954,0.014232981297653775,0.407,0.3687,0.014861460224352098,0.151918102,0.016699999999999993,2.321085051569359,9.66802,0.0461089289955221,9.7516,9.6163,0.052739330674554274,93.47283587000001,0.04420000000000002,2.3219109447695914,-1.48172,0.019422089062423552,-1.4619,-1.5026,0.01704426589794937,2.195726564,0.025800000000000045,2.32185174740698,0.37874,0.0019273828840573172,0.3835,0.3698,0.00619540152048275,0.14347469399999999,0.00880000000000003,2.3217732068288686,9.68664,0.0029652044370095604,9.6895,9.6838,0.002384952829722243,93.83099904000001,0.0035999999999987153,2.3219280599051944,0.02486,0.016753405069113297,0.0433,0.0015,0.016663222977563494,0.0008401499999999999,0.0208,1.9836170974308918,0.01078,0.012157338191745937,0.0372,-0.006,0.016802589086209303,0.00034206999999999993,0.0154,-1.0,-0.01862,0.04833283232328262,0.0678,-0.0722,0.053967833011897004,0.002676726,0.0414,-1.0,0.00202,0.0028169442151606437,0.0059,-0.0008,0.0025390943267236056,9.237999999999999e-06,0.0019,-1.0,-0.00336,0.0,0.0024,-0.0135,0.005966405953335726,3.9767999999999996e-05,0.0,-1.0,0.00122,0.004447806655516807,0.0051,-0.0022,0.0030687130853176876,9.022000000000001e-06,0.0043,-1.0,-0.13414326922455624,0.6587680437326684,-0.5460395643337499,11.51444,0.8962549385551783,0.8764704617388184,0.9990462385475548,11.5471,-0.4396248840078218,0.8366233648588564,-0.5670393138726881,0.0839,0.22172689197269793,-0.30495617793092367,-0.26444630217884213,0.009400000000000002,Laying
-1.4760199999999999,0.007116490648826764,-1.4617,-1.4964,0.012924472909948765,2.178768674,0.008399999999999963,2.3218839270246936,0.362,0.014232981297653775,0.3843,0.3412,0.01590062891837929,0.131246264,0.01200000000000001,2.320815841478382,9.6218,0.044329806333316894,9.669,9.56,0.04112730236716223,92.58038840399999,0.03229999999999933,2.3219175452110106,-1.48886,0.004151286211815558,-1.4699,-1.4983,0.011015806824740525,2.216801178,0.0034000000000000696,2.3218964188378837,0.37574,0.007413011092528016,0.3872,0.368,0.007877690016749825,0.14123019399999998,0.009899999999999964,2.32167526516544,9.68566,0.0008895613311039216,9.6881,9.6843,0.0014518953130305526,93.81201132200002,0.000600000000000378,2.321928081920765,0.0131,0.006078669095872967,0.0212,-0.0022,0.01003419154690601,0.000252158,0.0128,-1.0,-0.0077,0.012453858635447056,0.0127,-0.0291,0.015326937071704837,0.000247222,0.0109,-1.0,-0.05428,0.012157338191745934,-0.0407,-0.07,0.013596948187001376,0.00309422,0.02339999999999999,2.28612168658009,0.0032600000000000003,0.002816944215160644,0.0151,-0.0014,0.006781813916645015,4.7421999999999994e-05,0.0031,-1.0,0.0015199999999999999,0.003706505546264004,0.0042,-0.0013,0.0026147657638878477,7.78e-06,0.0049,-1.0,0.00096,0.0028169442151606433,0.0057,-0.0022,0.0030891746470538047,8.556e-06,0.0031,-1.0,0.963530494469779,0.48065221011903647,0.34736233605256517,11.459820000000002,0.7922759158446646,0.6978748261081752,0.9898836852212963,11.55026,0.5770240275061015,0.8407526975601869,0.2763233086274503,0.08104,-0.052811575356425,0.5473249714019719,0.038209645212710364,0.008700000000000003,Laying
-1.45664,0.033803330581927624,-1.4222,-1.4844,0.02717136360214552,2.1223907159999995,0.044299999999999784,2.321727076283847,0.37328,0.0071164906488269284,0.3915,0.3508,0.01491180740218972,0.139515848,0.009599999999999997,2.321001982317748,9.64216,0.017791226622067897,9.6618,9.6139,0.01933088202850565,92.971548412,0.023899999999999366,2.321925774744974,-1.48414,0.0038547657681144696,-1.4741,-1.4902,0.006597954228395341,2.202706366,0.006999999999999895,2.3219166788922014,0.37352,0.0014826022185056033,0.3766,0.3708,0.0021016660058153793,0.13952072399999998,0.0011000000000000454,2.3219098328001073,9.6865,0.0005930408874008586,9.6881,9.6856,0.0010440306508908762,93.828283122,0.0011999999999989797,2.321928088183627,0.01648,0.008747353089183053,0.0587,-0.004,0.024613959453935894,0.0007562680000000002,0.011300000000000001,-1.0,-0.0077,0.029059003482709796,0.0177,-0.0303,0.01918958050609757,0.00035388199999999997,0.022199999999999998,-1.0,-0.03572,0.03943721901224902,0.0021,-0.0719,0.028625722698300562,0.0019314640000000001,0.029900000000000003,-1.0,0.00228,0.004596066877367366,0.0096,-0.0032,0.004862818112987571,2.4115999999999994e-05,0.0043,-1.0,-0.0008,0.0026686839933100833,0.0036,-0.0129,0.006935055875766251,3.9116e-05,0.0036999999999999997,-1.0,0.00122,0.0026686839933100837,0.0064,-0.0022,0.0035499295767662774,1.157e-05,0.0043,-1.0,0.7808099482978622,0.028096320137513286,0.5633841303499657,11.47208,-0.6700586734190217,-0.7132427951080134,0.9980450732070184,11.544160000000002,0.8243997137793005,-0.47347097941542027,0.042811277766957256,0.06942000000000001,-0.7377553809682056,-0.19040203183762905,0.5924926347630639,0.010940000000000002,Laying
-1.44348,0.031875947697870555,-1.409,-1.4952,0.034550065122948774,2.084589476,0.0383,2.32159888680724,0.37926,0.014232981297653775,0.3903,0.3687,0.010231715398700245,0.14392189800000002,0.019199999999999995,2.321508299963254,9.62708,0.04981543454178801,9.681,9.5696,0.047040535711235225,92.682439576,0.06460000000000043,2.3219143124814594,-1.47142,0.007709531536228939,-1.4607,-1.4847,0.011690038494376291,2.165186142,0.02100000000000013,2.3218916991533285,0.3816,0.007264750870677472,0.3874,0.3735,0.006083995397762891,0.145648172,0.009699999999999986,2.321781200629851,9.68812,0.0008895613311039216,9.6895,9.6864,0.0015401298646539742,93.85967103200001,0.0027999999999988034,2.3219280803033366,0.037739999999999996,0.010378215529539212,0.0567,0.0135,0.016004624331736127,0.001629226,0.0116,2.203721383948737,0.00156,0.0020756431059078427,0.0156,-0.0162,0.011391795293104592,0.000106252,0.0019,-1.0,-0.04412,0.039140698568547884,0.0175,-0.1031,0.0442788549987463,0.0035150679999999997,0.03119999999999999,-1.0,0.0010400000000000001,0.0035582453244134443,0.0059,-0.0026,0.003775314556431027,1.2484000000000003e-05,0.0061,-1.0,3.999999999999995e-05,0.0008895613311033613,0.0024,-0.0025,0.0017515707236649052,2.456e-06,0.0006000000000000001,-1.0,0.0017000000000000001,0.0028169442151606437,0.0051,-0.0004,0.002314087293081227,7.174e-06,0.0031000000000000003,-1.0,0.13970325669253641,0.23939894777866422,0.09019084929487631,11.449819999999999,0.9623937020956563,0.9554283207700673,0.9996568905088856,11.541139999999999,-0.5826139860361979,0.3649797528785742,-0.20830533470774515,0.09690000000000001,0.001209787705833243,-0.5495539040872419,0.4278074282400923,0.0061,Laying
-1.44706,0.017791226622067238,-1.4329,-1.4617,0.012131281877856049,2.0941003780000003,0.017999999999999794,2.3218875293659855,0.37448,0.008895613311033619,0.3915,0.3388,0.020713811817239247,0.14057851999999998,0.008399999999999963,2.3201244208999823,9.64408,0.01423298129765221,9.6941,9.6187,0.03245969808855311,93.009121952,0.03950000000000031,2.321921562572879,-1.4751999999999998,0.0032617248807122945,-1.4726,-1.4781,0.002457641145488927,2.176219872,0.0040000000000000036,2.321926493152704,0.38644,0.0023721635496089487,0.395,0.3825,0.005034183151217295,0.149356148,0.0030000000000000027,2.3218306017070085,9.68734,0.0005930408874034922,9.6879,9.6868,0.0004878524367061925,93.844556466,0.0007999999999999119,2.3219280934238338,0.01974,0.024166416161641315,0.0452,-0.0197,0.02586064577693295,0.0009246859999999999,0.0284,-1.0,0.0030799999999999994,0.00711649064882689,0.0192,-0.0067,0.010359150544325534,9.533599999999998e-05,0.0098,-1.0,-0.04494,0.015122542628757141,-0.001,-0.0692,0.029769077916522706,0.0027285620000000003,0.0403,1.9579203452842842,0.0033799999999999998,0.002668683993310084,0.0078,-0.0002,0.003047457957052074,1.8854e-05,0.003,-1.0,0.0003,0.003706505546264004,0.0042,-0.0062,0.004234383071948026,1.4434e-05,0.0049,-1.0,-0.00084,0.0019273828840572825,0.0009,-0.0034,0.0019138965489283897,3.6360000000000004e-06,0.0031000000000000003,-1.0,0.4064148813309826,-0.8453686309610251,0.07208634871602335,11.465620000000001,-0.4350473798590849,-0.7184626112099559,0.9383083359172721,11.54898,-0.7199629988454435,0.6816099993606239,-0.46337808896492483,0.08008,-0.053471359140469424,-0.4596398486485558,-0.5723941657399038,0.00832,Laying
-1.45066,0.021201211724630405,-1.4126,-1.4748,0.023971086750500057,2.104874126,0.018000000000000016,2.321769893474085,0.36774,0.003558245324413382,0.3879,0.3567,0.014459875518136395,0.135399978,0.021600000000000008,2.3210414167956976,9.662040000000001,0.016012103959860056,9.7037,9.6295,0.02723550990894028,93.35561038,0.016799999999999926,2.32192351149949,-1.45912,0.001334341996655224,-1.4565,-1.4609,0.0017894133116751387,2.129033736,0.0020000000000000018,2.321927226796341,0.38916,0.0044478066555168096,0.3944,0.3833,0.0042435833914275765,0.15145991200000003,0.0043999999999999595,2.3218594260379524,9.68966,0.0002965204437004293,9.69,9.6893,0.00027018512172208796,93.88951097399999,0.0002999999999993008,2.321928094438678,0.008499999999999999,0.024314676383491867,0.044,-0.0167,0.02302205464331974,0.0004962619999999999,0.017099999999999997,-1.0,-0.02142,0.019866869727975068,-0.0021,-0.0376,0.015659246469737934,0.000654986,0.026,1.9450703901505504,-0.02764,0.01556732329430882,0.014,-0.0599,0.02711296737725327,0.00135206,0.0163,-1.0,0.00324,0.004596066877367366,0.0072,-0.0008,0.003435549446595115,1.994e-05,0.0055,-1.0,0.00592,0.003558245324413445,0.025,-0.0074,0.01182421244734718,0.00014689600000000004,0.0036000000000000003,-1.0,0.00292,0.0028169442151606437,0.0076,-0.0004,0.0035379372521287034,1.8540000000000002e-05,0.0055000000000000005,-1.0,0.6674419071741615,-0.07971112174398318,-0.3481953847024669,11.480439999999998,0.30539178038613385,-0.4378340629181041,0.7218605916060055,11.53794,0.5527130731622361,-0.056059251275932476,-0.4103477291732584,0.07028,-0.6555699631483838,-0.27341840276310586,0.7924057153493589,0.01552,Laying
-1.43988,0.03380333058192795,-1.3946,-1.4952,0.038361790886245146,2.0744317160000003,0.0383,2.3215195522463095,0.38258,0.02134947194648062,0.407,0.3388,0.02725824645864073,0.146961866,0.02510000000000001,2.3189389924916877,9.64,0.012305598413596786,9.657,9.6163,0.015096191572710993,92.929782316,0.008300000000000196,2.3219266792552102,-1.44764,0.004892587321068606,-1.4389,-1.4711,0.013325089117900887,2.095803616,0.0046000000000001595,2.321879385093304,0.4005,0.006375189539574045,0.4084,0.393,0.006221736092120904,0.160431218,0.008500000000000008,2.3217888603577705,9.69094,0.0002965204437004293,9.6921,9.6876,0.0018981570008829022,93.914320966,0.000700000000000145,2.321928072746112,0.0077800000000000005,0.026983360376801956,0.0488,-0.024,0.028511962401770945,0.000710874,0.0325,-1.0,-0.0179,0.020459910615377306,0.014,-0.0573,0.026235948620166184,0.0008710699999999998,0.0171,-1.0,-0.05092,0.006078669095872967,-0.0351,-0.0756,0.014988562305971844,0.002772572,0.004700000000000003,2.274582889058541,0.00228,0.0017791226622067226,0.0041,-0.0002,0.0016798809481626965,7.456e-06,0.0018000000000000002,-1.0,0.00248,0.0019273828840572825,0.0115,-0.0013,0.00516449416690541,2.7488e-05,0.0019,-1.0,0.0030600000000000002,0.004447806655516806,0.007,-0.001,0.003308020556163459,1.8118000000000002e-05,0.0048000000000000004,-1.0,0.8793366654040924,-0.13693945906468,-0.035493694671900056,11.46246,0.4576613474152269,0.33933590476479963,0.9916534112830578,11.539080000000002,0.8592841178230678,-0.12330918712499692,-0.15390777645552334,0.09667999999999999,-0.07757267508034228,-0.2821896888161348,0.5765617179429907,0.008860000000000002,Laying
-1.47338,0.016012103959860382,-1.4461,-1.4868,0.01639884142249081,2.171063762,0.01200000000000001,2.3218563626297057,0.39838,0.0071164906488269284,0.407,0.3891,0.007187628259725169,0.15874795400000002,0.009599999999999997,2.3217401341663413,9.61272,0.026686839933099213,9.657,9.5768,0.03776363329977677,92.40552667200001,0.06460000000000043,2.3219191922367415,-1.48014,0.001037821552953807,-1.477,-1.4823,0.0025294268125407005,2.1908195380000004,0.0041999999999999815,2.321926409244123,0.3947,0.00029652044370117003,0.397,0.3907,0.003093541659651608,0.15579574599999998,0.0050000000000000044,2.321892605660448,9.68626,0.0,9.6869,9.6859,0.0004979959839193518,93.823632986,0.0007999999999999119,2.3219280933620072,0.0067599999999999995,0.011564297304343694,0.0355,-0.0086,0.017417318967051156,0.000288388,0.013499999999999998,-1.0,0.00374,0.004744327099217927,0.0101,-0.0077,0.006845655556628598,5.1478000000000004e-05,0.0035,-1.0,-0.07354,0.0253524979364458,-0.0289,-0.1091,0.03807969275086132,0.0065681820000000005,0.06570000000000001,2.1496810920131044,0.0046,0.0008895613311033616,0.0145,-0.0002,0.005710516614107694,4.7248e-05,0.0012000000000000001,-1.0,-0.0010400000000000001,0.004447806655516806,0.0042,-0.0098,0.005489353331677603,2.5188e-05,0.0049,-1.0,0.00074,0.0026686839933100833,0.0033,-0.0028,0.002388095475478315,5.109999999999999e-06,0.0025,-1.0,0.16747862041199799,-0.28492328435804926,0.824985688107178,11.484480000000001,-0.9920270774666251,-0.9996291488839627,0.9947251825245591,11.5611,-0.046342049252797585,-0.5526996532390829,0.855188523728859,0.09248,0.42324565765809796,0.14585288244007452,0.7180695240776319,0.01058,Laying
-1.47364,0.014232981297653857,-1.4389,-1.4976,0.0258929140886073,2.172151204,0.03709999999999991,2.3217494882558922,0.38046,0.0035582453244134642,0.3891,0.3735,0.007416737827373975,0.144793818,0.01200000000000001,2.3217092423084122,9.64696,0.031875947697869896,9.6845,9.5828,0.041791781488708754,93.065234484,0.047900000000000276,2.3219172545588864,-1.4862199999999999,0.030838126144916416,-1.4638,-1.5069,0.019825917381044438,2.2091643420000002,0.035600000000000076,2.3218254114304635,0.39424,0.0013343419966550594,0.3984,0.3911,0.002676378149664195,0.155430908,0.0015000000000000013,2.321901530061258,9.68534,0.004744327099220037,9.6889,9.682,0.003106122985330738,93.805818634,0.005399999999999849,2.3219280355343015,0.01258,0.012453858635447056,0.0312,-0.0058,0.013682726336516416,0.00030803,0.0108,-1.0,-0.01382,0.006819970205125769,-0.0056,-0.0205,0.005828550420130207,0.00021817,0.0066,2.208710664397336,-0.03838,0.026983360376801952,-0.0044,-0.0992,0.038945500381944,0.0026864259999999996,0.0425,1.7400810284440724,0.00204,0.003706505546264004,0.0078,-0.005,0.004754261246502973,2.2244e-05,0.0037,-1.0,0.0038399999999999997,0.004447806655516806,0.0305,-0.0111,0.01572793692764566,0.00021264,0.0043,-1.0,0.00026000000000000003,0.003706505546264005,0.0051,-0.004,0.0033857052441108927,9.238e-06,0.0025,-1.0,0.4250030928959051,-0.3407292795844087,0.6651263085584835,11.501059999999999,-0.6068695327102697,-0.6284614028854585,0.9996226530233643,11.5658,0.9849410231345239,-0.08246627893477798,-0.08258322415457281,0.0671,0.822978663891542,0.9437906173930104,0.8315147612459453,0.015819999999999997,Laying
-1.47888,0.012453858635447002,-1.4377,-1.5071,0.02567794773730958,2.18761354,0.0132000000000001,2.3217534153437107,0.38262,0.001779122662206691,0.3843,0.3807,0.0013682105101189609,0.14639956199999998,0.0011999999999999789,2.321920713598529,9.594759999999999,0.012305598413596786,9.6115,9.5804,0.011861829538481791,92.05953201999999,0.011899999999998911,2.321927212978186,-1.50082,0.006671709983275132,-1.4892,-1.5078,0.007236159202228744,2.2525025620000005,0.005800000000000027,2.321914663966736,0.39288,0.0013343419966550594,0.3948,0.389,0.0023080294625502404,0.154358956,0.0015999999999999903,2.321908140710974,9.68316,0.0008895613311039216,9.6849,9.6821,0.0010968135666560926,93.763588548,0.0010000000000012221,2.3219280874835637,0.02194,0.018680787953170585,0.0515,-0.0013,0.019693983852943516,0.000791646,0.014499999999999999,-1.0,-0.010320000000000001,0.001779122662206722,-0.006,-0.0129,0.00297018517941222,0.00011356,0.004,2.2704991759041944,-0.0884,0.010378215529539223,-0.0709,-0.1026,0.01226132129910965,0.007934832,0.013400000000000009,2.3106129352162483,0.0033799999999999998,0.0017791226622067226,0.0096,-0.0002,0.003725184559186296,2.2525999999999997e-05,0.0018000000000000002,-1.0,-0.0013000000000000002,0.0008895613311033611,0.0042,-0.0074,0.004117644957982657,1.5254000000000003e-05,0.0006,-1.0,0.00258,0.0017791226622067226,0.0045,0.0009,0.0014324803663575984,8.298e-06,0.0018,2.134381970313281,-0.4983371970609874,0.506855430930338,-0.6627538571208654,11.45626,0.12376305328904766,0.059846460604301294,0.9977676434497316,11.57686,-0.6977802245462235,0.6604492078894453,-0.7738091718432386,0.12118000000000002,-0.618195956603052,-0.40434381848093814,0.01911453332801904,0.00902,Laying
-1.51026,0.01586384373801017,-1.4784,-1.5562,0.029046996402382164,2.2815602499999996,0.019100000000000117,2.3217154659178174,0.36532,0.01067473597324031,0.3998,0.3519,0.019736311712171543,0.13377032,0.008399999999999963,2.320277980467684,9.65056,0.030245085257512266,9.681,9.6019,0.032257138744779784,93.134140732,0.03829999999999956,2.321921643406772,-1.51496,0.004151286211815558,-1.489,-1.5231,0.014589825221708385,2.295274092,0.0028999999999999027,2.321874346335963,0.38338,0.01823600728761895,0.3989,0.3676,0.013656024311636239,0.147129414,0.02260000000000001,2.3211958454517974,9.68132,0.0005930408874034922,9.6847,9.6801,0.0019421637418095027,93.72795995999999,0.001100000000000989,2.3219280716651842,0.00468,0.011119516638792012,0.0236,-0.0331,0.02234204556436138,0.000421236,0.013599999999999998,-1.0,-0.018000000000000002,0.019570349284273945,0.001,-0.042,0.017877919342026354,0.000579696,0.024800000000000003,-1.0,-0.03076,0.030838126144916524,0.0009,-0.0828,0.034095278265472484,0.0018761680000000003,0.0394,-1.0,0.00094,0.006375189539574088,0.0133,-0.0124,0.00932432303172729,7.0438e-05,0.0055,-1.0,0.00444,0.009192133754734733,0.0122,-0.0013,0.005577902831710141,4.4604e-05,0.0067,-1.0,-0.00012000000000000006,0.0008895613311033613,0.0021,-0.0016,0.0015578831791889917,1.9559999999999996e-06,0.0019,-1.0,0.7407917140362829,-0.9279880855883363,-0.8603268247445719,11.52614,0.6456491694893546,0.4683051737930669,0.9769962780193372,11.579659999999999,0.5665458355086808,-0.8601964294590438,-0.5394907036655167,0.06743999999999999,0.37320587118268755,0.6520347433674861,0.5070835423725852,0.01326,Laying
-1.47698,0.014084721075803313,-1.4581,-1.5167,0.023457770567553923,2.1819101340000002,0.01550000000000007,2.3217832947126276,0.37013999999999997,0.0035582453244134642,0.3771,0.3555,0.008752599613829024,0.137064906,0.00599999999999995,2.3216028682449643,9.61778,0.01423298129765221,9.6415,9.5505,0.03805196446965664,92.50285048999999,0.010799999999999699,2.3219190466152453,-1.49538,0.01156429730434341,-1.4767,-1.5153,0.014141145639586676,2.236321322,0.009799999999999809,2.3218765045424687,0.37618,0.0016308624403561472,0.3784,0.3719,0.0025528415540334694,0.14151660600000002,0.0015000000000000013,2.32190146031945,9.68464,0.0017791226622078432,9.6874,9.6817,0.0020935615586845126,93.792255436,0.0015000000000000568,2.32192806791977,0.02056,0.027131620598652515,0.0424,-0.0014,0.018262338294971977,0.0006895240000000001,0.0267,-1.0,0.00356,0.006078669095872967,0.0226,-0.0095,0.011804787164536257,0.000124156,0.0045000000000000005,-1.0,-0.06858,0.002223903327758395,-0.0427,-0.137,0.038586876007264445,0.005894374000000001,0.0014999999999999944,2.1671797379999624,0.0031200000000000004,0.003706505546264005,0.0102,-0.0014,0.004602933847015401,2.6684e-05,0.0049,-1.0,0.00116,0.005337367986620167,0.0103,-0.0031,0.005483429583755043,2.5400000000000004e-05,0.0043,-1.0,0.00296,0.000889561331103361,0.0076,0.0015,0.00261113002357217,1.4215999999999997e-05,0.0005999999999999998,1.9626524153135714,-0.42288861908159425,-0.5353012094826908,-0.06451499050093246,11.4649,0.9257036989492958,0.9244964717681965,0.9999540992967924,11.5562,0.5279775825707637,0.13091593710388427,0.44227959967723246,0.09758,-0.5618691213459194,0.9219547627860117,-0.49538813265755777,0.01036,Laying
-1.47196,0.024907717270894005,-1.4401,-1.5012,0.02306432309867347,2.167091812,0.021500000000000075,2.3217863204083806,0.38404,0.008895613311033619,0.3962,0.3663,0.011210619965015305,0.147587264,0.007199999999999984,2.321433204955949,9.652,0.04255068367110905,9.7288,9.5888,0.05193183031629022,93.16326153199999,0.03950000000000031,2.321911399419867,-1.48476,0.0014826022185054388,-1.4645,-1.4908,0.011347819173744392,2.2046152759999997,0.0010999999999998789,2.3218942708669634,0.3835,0.0022239033277584048,0.3867,0.3811,0.0025524498036200356,0.147077462,0.0042999999999999705,2.3219025480227633,9.68602,0.000444780665550644,9.6892,9.685,0.0017866169147299719,93.81898599399999,0.0002999999999993008,2.321928075255036,0.012820000000000002,0.008599092867332491,0.0262,-0.0121,0.01619913577941737,0.00037428200000000003,0.019200000000000002,-1.0,0.0005400000000000003,0.00815431220178081,0.0152,-0.0163,0.0114312291552571,0.00010482999999999998,0.0060999999999999995,-1.0,-0.034,0.04195764278370853,0.0397,-0.0966,0.05052301455772409,0.00319806,0.0392,-1.0,0.00398,0.003706505546264004,0.0078,0.0004,0.0028908476265621474,2.2525999999999997e-05,0.003,1.9728044662672508,0.00346,0.005485628208470727,0.0109,-0.0007,0.004619848482363896,2.9046000000000003e-05,0.0036999999999999997,-1.0,0.0011,0.003706505546264005,0.0051,-0.0034,0.0033786091813052302,1.0342e-05,0.0043,-1.0,0.787211013900971,0.23569705448405903,0.3528988144482079,11.508000000000001,-0.5756136833383577,-0.606326408454403,0.9992499986756493,11.554279999999999,0.7327298119888004,0.2822531005290786,-0.08862098567591975,0.07564,0.424101991091681,0.04068253766462698,0.1996509827891338,0.010620000000000001,Laying
-1.4619,0.0425506836711107,-1.421,-1.5083,0.03319977409561695,2.13803339,0.029900000000000038,2.3216309516706755,0.37638,0.01067473597324031,0.3879,0.3627,0.010308831165558967,0.141746922,0.014399999999999968,2.3214943846405975,9.6405,0.028317702373456842,9.6654,9.6175,0.020479624019986247,92.93957578199999,0.03229999999999933,2.32192549085897,-1.478,0.013491680188400808,-1.4662,-1.4903,0.011242997820866123,2.1845851240000003,0.01990000000000003,2.3218946891546395,0.38244,0.0008895613311033455,0.3838,0.3816,0.0009181503144910407,0.14626102800000002,0.0012000000000000344,2.3219247701576333,9.68708,0.0020756431059082724,9.6889,9.6852,0.001690266251216211,93.839521212,0.0029000000000003467,2.3219280773180224,0.00904,0.031875947697870444,0.0303,-0.0181,0.02040583249955757,0.00041484,0.029500000000000002,-1.0,-0.008,0.008747353089183053,0.0009,-0.019,0.00761084752179414,0.00011033999999999998,0.0073,-1.0,-0.05258,0.04596066877367366,-0.0198,-0.0917,0.02859898599601042,0.0034189780000000005,0.031599999999999996,2.143299964597845,0.00412,0.0026686839933100833,0.0072,0.0011,0.002278596058980178,2.1127999999999998e-05,0.0018,2.1286464340431506,-0.0003,0.005485628208470728,0.0103,-0.0086,0.007001071346586892,3.9302e-05,0.0049,-1.0,0.00184,0.0017791226622067226,0.0033,-0.0004,0.0015993748778819804,5.432e-06,0.0024000000000000002,-1.0,0.9679741763164704,-0.5192283433872864,-0.3975253571670256,11.478779999999997,0.6696366737904812,0.6546735582205123,0.999675863534851,11.54752,0.5298582779069939,-0.5631883663122436,-0.4439721783238959,0.07782,-0.2864734344235592,0.16052923109022427,0.16230695756363717,0.01126,Laying
-1.47818,0.038992438346697314,-1.4365,-1.5155,0.030081007296963967,2.1857400060000005,0.02750000000000008,2.3216887508283985,0.3735,0.02846596259530755,0.3998,0.3484,0.02173994020230967,0.13988035,0.03360000000000002,2.3199720246950664,9.63116,0.017642966400215048,9.657,9.5912,0.024812154279707066,92.75973546000002,0.015499999999999403,2.321924262449521,-1.4839200000000001,0.0011860817748046801,-1.4825,-1.4856,0.0013881642554107428,2.202020108,0.0021999999999999797,2.3219275899263017,0.3775,0.0026686839933100365,0.3796,0.3755,0.0018207141456033078,0.142508902,0.0030999999999999917,2.321914672528034,9.68638,0.00014826022185021465,9.6865,9.6862,0.00013038404810463466,93.82595751800002,0.00020000000000131024,2.321928094782803,0.00432,0.011712557526194253,0.022,-0.0319,0.021871031068516178,0.00040133599999999997,0.0176,-1.0,-0.01804,0.020459910615377313,0.0135,-0.0386,0.021019823976427588,0.000678908,0.024300000000000002,-1.0,-0.07104,0.04610892899552422,-0.0292,-0.1123,0.03282343674876231,0.005908584,0.036800000000000006,2.1927773393346564,0.00106,0.006375189539574088,0.0084,-0.0069,0.005789905007856346,2.7942e-05,0.0055,-1.0,0.0007800000000000001,0.005337367986620167,0.014,-0.0056,0.007803012238872883,4.9318000000000005e-05,0.0048000000000000004,-1.0,0.00206,0.003706505546264005,0.0057,-0.0022,0.0031085366332086225,1.1974000000000001e-05,0.0036999999999999997,-1.0,0.9379559249790514,0.8627776673035765,0.9364078114038694,11.48284,0.8378008474169131,0.6739904696861454,0.9641178270677077,11.547799999999999,0.6384759529383701,-0.06268200213996455,0.416904632226637,0.11159999999999999,-0.7693559194563333,-0.5865983544462479,0.3652045704431581,0.01258,Laying
-1.4635799999999999,0.012305598413596458,-1.4341,-1.4916,0.02066656720406177,2.1424081019999996,0.009500000000000064,2.3218129719541993,0.36656,0.021349471946480705,0.3855,0.3376,0.0200867618097094,0.134689016,0.027600000000000013,2.3201800716565035,9.63784,0.0035582453244130527,9.6869,9.6175,0.029911001320584295,92.88867559999998,0.027499999999999858,2.3219225418693434,-1.47898,0.0017791226622068555,-1.4767,-1.4824,0.002533179819910151,2.187386974,0.0039000000000000146,2.3219264023343653,0.37944,0.0013343419966550594,0.3811,0.3781,0.0013390294993016357,0.143976148,0.0021999999999999797,2.321920910404024,9.68706,0.0002965204437004293,9.6874,9.6866,0.0003435112807464836,93.83913153800002,0.0005000000000006111,2.3219280941617004,0.01372,0.004003025989965127,0.0318,-0.0065,0.013704999087924085,0.0003385,0.005300000000000001,-1.0,0.0017399999999999994,0.016605144847262738,0.0283,-0.0393,0.02588644432903059,0.000539114,0.020999999999999998,-1.0,-0.057819999999999996,0.03869591790299621,-0.01,-0.1457,0.05507882533242698,0.005770093999999999,0.05449999999999999,1.825460170840619,-0.0015199999999999999,0.0008895613311033611,0.0047,-0.0093,0.005006695517005203,2.2363999999999998e-05,0.0006,-1.0,0.00214,0.0028169442151606433,0.0085,-0.0013,0.003936114835723165,1.6974000000000004e-05,0.0037,-1.0,0.00023999999999999998,0.0019273828840572825,0.0021,-0.0028,0.0018902380802428038,2.9159999999999997e-06,0.0013,-1.0,-0.10714016960457654,-0.18876521056102602,-0.8576427726493787,11.46798,0.43381453800302616,0.3141497356906662,0.9894551838479074,11.545480000000001,-0.23291185606633805,0.0949056527450503,-0.2688522067588153,0.09308,-0.918661677681788,0.19529060271427812,-0.42281962101970083,0.0077,Laying
-1.47482,0.017791226622067238,-1.4138,-1.5203,0.03874857416731617,2.1762951940000006,0.015600000000000058,2.321527697136353,0.3905,0.02846596259530755,0.425,0.3687,0.02333613078468664,0.15292591000000003,0.029899999999999982,2.31988377708911,9.65798,0.03380333058192795,9.7001,9.6115,0.03421676489675823,93.27751430999999,0.03829999999999956,2.3219208504533335,-1.48086,0.0020756431059079433,-1.4787,-1.4844,0.0022700220263248516,2.1929504619999998,0.0022999999999999687,2.3219267393285414,0.38128,0.0016308624403561472,0.3835,0.3797,0.001517234326002425,0.14537628,0.0018000000000000238,2.3219189616879694,9.6867,0.0002965204437004293,9.6871,9.6861,0.0003807886552930077,93.832157006,0.0002999999999993008,2.3219280939955893,0.01106,0.009785174642136973,0.0276,-0.0147,0.015926173426156074,0.00032523799999999994,0.0097,-1.0,-0.00564,0.010971256416941454,0.0335,-0.0364,0.02538804836926226,0.0005474520000000001,0.012299999999999998,-1.0,-0.03066,0.011416037082493133,0.0099,-0.0574,0.025071158728706577,0.001442886,0.013399999999999999,-1.0,0.0024000000000000002,0.003558245324413445,0.0084,-0.0087,0.006574952471311104,4.0344e-05,0.003,-1.0,0.00326,0.0017791226622067221,0.0177,-0.0074,0.009053618061305656,7.620200000000001e-05,0.0012,-1.0,0.00168,0.0026686839933100837,0.0051,-0.0016,0.0029490676492749364,9.780000000000001e-06,0.0043,-1.0,0.8131453384277884,0.6720304360118088,0.14195752083569002,11.5233,-0.19133864042500962,-0.4024262451311983,0.9746660464208953,11.54884,0.9120617590499114,-0.6594035552729074,-0.8664192953110175,0.0706,-0.9596888122216519,0.1270237462699581,-0.23401262337028397,0.014419999999999999,Laying
-1.49542,0.016012103959860382,-1.476,-1.5131,0.014049982206394404,2.2364388980000003,0.0132000000000001,2.321877125229617,0.37804,0.007116490648826846,0.4034,0.3555,0.01713178332807183,0.14314903999999998,0.006000000000000005,2.320746485507216,9.56004,0.03721331568448816,9.5888,9.5361,0.022638970824664473,91.39477482000001,0.034699999999999065,2.321924858867023,-1.4952,0.007264750870677637,-1.4884,-1.5013,0.005274940757961232,2.2356453000000003,0.007300000000000084,2.321920911937097,0.38546,0.00029652044370108774,0.3871,0.3824,0.0021755459085020436,0.148583198,0.0030999999999999917,2.3219096939659623,9.68432,0.001186081774804351,9.6855,9.6834,0.0008526429498911699,93.786054444,0.0010999999999992127,2.321928090414064,0.0314,0.026538579711250274,0.0593,-0.0017,0.024892368308379178,0.001481664,0.0314,-1.0,-0.00742,0.014529501741354898,0.0093,-0.0404,0.020911408369595767,0.00040488599999999997,0.0241,-1.0,-0.11996,0.00548562820847074,-0.0764,-0.1487,0.03764084217973875,0.015523868,0.0673,2.261888620349764,0.00045999999999999996,0.0026686839933100833,0.0035,-0.005,0.003385705244110893,9.382e-06,0.0031,-1.0,0.00568,0.003706505546264005,0.0238,-0.0037,0.010619651595038323,0.00012248400000000002,0.0043,-1.0,0.00184,0.006375189539574088,0.007,-0.0034,0.004521393590476282,1.9740000000000004e-05,0.007300000000000001,-1.0,0.690559352568654,-0.5249494127934581,-0.7061148812405584,11.4335,-0.25880377724646664,-0.3363946901472963,0.9960777109195098,11.564980000000002,0.7525630209269352,0.018241748233891936,-0.31299037505342453,0.1669,-0.948157152759033,0.6394481009187143,-0.6683060599858991,0.01378,Laying
-1.48296,0.02134947194648062,-1.4485,-1.5347,0.032426732798726425,2.200011556,0.021600000000000064,2.32165351443506,0.35504,0.01067473597324031,0.3783,0.3172,0.02308198431677833,0.12647962400000004,0.01319999999999999,2.3194422307754174,9.578940000000001,0.003409985102562838,9.6019,9.5253,0.03363722640171188,91.75699669400001,0.03589999999999982,2.321920972039289,-1.49736,0.004447806655516974,-1.4915,-1.5013,0.004178277156915268,2.2421009360000004,0.006099999999999994,2.3219235998649075,0.38034,0.0051891077647696114,0.3852,0.3758,0.003872725138710454,0.14467051400000003,0.0050000000000000044,2.3218682551044516,9.6842,0.0005930408874034922,9.6851,9.6834,0.000651920240520176,93.78372998,0.000700000000000145,2.321928092272226,0.03378,0.009340393976585292,0.0418,0.0237,0.007415321975477531,0.001185078,0.010100000000000001,2.2931997271217432,0.004880000000000001,0.026983360376801956,0.0421,-0.03,0.033544701519017874,0.0009240119999999999,0.0551,-1.0,-0.09636,0.015270802850607685,-0.0574,-0.1321,0.027235142738748403,0.009878652,0.018299999999999997,2.2738868322669066,-0.0003,0.007264750870677449,0.0053,-0.0063,0.0049076470940767536,1.9358e-05,0.007300000000000001,-1.0,-0.00104,0.005485628208470728,0.006,-0.0147,0.008162291344959454,5.438e-05,0.0055,-1.0,-0.0004999999999999999,0.001779122662206722,0.0057,-0.0034,0.0037255872020394314,1.1354e-05,0.003,-1.0,0.7706760826175871,-0.6064799721287739,-0.19105238404153457,11.41694,0.14155211961000452,-0.08218772543125928,0.973786350936885,11.561900000000001,0.710143595957363,-0.17146990254011663,0.5604326786008464,0.15794000000000002,0.7260162126236401,-0.09947605493555794,0.44985012784290024,0.012519999999999998,Laying
-1.46242,0.0,-1.4617,-1.4641,0.0010733126291998926,2.138673178,0.0012000000000000899,2.321927784100502,0.37182,0.014232981297653775,0.3843,0.3579,0.011466124018167597,0.13835529,0.01679999999999998,2.3213796149833543,9.58974,0.01586384373800984,9.6223,9.5433,0.029429288132742537,91.96380613400001,0.019099999999999895,2.321922656697836,-1.48488,0.014529501741354945,-1.4729,-1.4963,0.009909439943811132,2.2049471720000002,0.015200000000000102,2.321902394961263,0.38332,0.0007413011092528017,0.3872,0.3772,0.0050176687814163295,0.146954364,0.008500000000000008,2.3218290445586147,9.68598,0.001630862440354995,9.6877,9.6844,0.0013663820841912908,93.81821005400002,0.0019999999999988916,2.3219280834034364,0.03282,0.02298033438683683,0.0561,0.0126,0.017268960594083248,0.001315726,0.0211,2.1546750642618133,0.00168,0.020163390171676187,0.019,-0.0123,0.012789722436393995,0.00013368400000000002,0.0155,-1.0,-0.07972,0.03839939745929509,-0.0339,-0.1471,0.04265819968071789,0.007811056000000002,0.0279,2.162418795711416,0.004,0.009043873532884172,0.009,-0.0032,0.005146357935472424,3.7188e-05,0.006699999999999999,-1.0,0.0026200000000000004,0.0028169442151606446,0.0079,-0.0086,0.0069207658535742995,4.5182e-05,0.0068000000000000005,-1.0,0.0034,0.0,0.0045,-0.0004,0.0021400934559032696,1.5223999999999999e-05,0.0005999999999999998,-1.0,0.6084472903612055,-0.17187062225426003,-0.31323184562480233,11.42398,0.8910893338704122,0.8569799903337851,0.9974460120971889,11.554179999999999,-0.13209187465506167,-0.5595134432887172,-0.6298736943640781,0.12298,-0.21148764221135524,-0.4709310401089261,0.204064271334209,0.0149,Laying
-1.488,0.005337367986619908,-1.4664,-1.4988,0.014173214173221278,2.214304704,0.018000000000000016,2.32187562745943,0.36918,0.003558245324413382,0.3747,0.3603,0.006659729724245562,0.13632935399999999,0.010799999999999976,2.321739834272015,9.57298,0.017791226622067897,9.5924,9.5565,0.014678623913705252,91.64211845,0.020400000000000418,2.321926738244606,-1.51026,0.0037065055462639257,-1.5022,-1.5185,0.00594583888109995,2.28091355,0.0040999999999999925,2.3219191507464774,0.38082,0.004744327099217897,0.3871,0.3767,0.004428543778715526,0.14503956199999998,0.006399999999999961,2.321850167813503,9.68216,0.000444780665550644,9.6832,9.6809,0.0008324662155306554,93.74422281999998,0.00039999999999906777,2.321928090621293,0.02898,0.016605144847262745,0.0441,0.0093,0.013779404921838968,0.000991738,0.016,2.172829970691425,-0.01116,0.005040847542919047,-0.0022,-0.0194,0.006547365882551548,0.00015884000000000002,0.0068000000000000005,2.091516662522418,-0.11948,0.013936460853952646,-0.0908,-0.1352,0.01859118070483959,0.014551976,0.022400000000000003,2.3073743648063276,0.0036,0.004596066877367366,0.0096,0.0004,0.003766297917053296,2.4307999999999995e-05,0.0037,1.6732923304871958,0.00128,0.006226929317723529,0.0067,-0.0037,0.004905303252603248,2.0888000000000004e-05,0.0091,-1.0,0.0018399999999999998,0.0008895613311033613,0.0045,0.0002,0.0016456001944579368,5.5519999999999995e-06,0.0012,1.8659017477929052,0.6750731158712325,-0.4206201118136307,-0.26734821652062996,11.43016,0.67102375017337,0.5522684252291151,0.9883407327694217,11.573239999999998,0.9724801758485657,-0.5589399982796819,-0.6427314861638245,0.15962,-0.8719970367972777,0.6929365208271568,-0.5610843283509243,0.00944,Laying
-1.4801,0.003558245324413382,-1.4605,-1.494,0.012244590642402084,2.190815954,0.0047999999999999154,2.3218885284974697,0.37806,0.016012103959860465,0.3998,0.3388,0.023532806887407207,0.14337239799999998,0.01319999999999999,2.3196459438136308,9.5615,0.005337367986620896,9.5888,9.5445,0.02085845152450235,91.42263031,0.03229999999999933,2.3219253494442684,-1.51126,0.014529501741354945,-1.4971,-1.522,0.010313001502957293,2.283991874,0.01419999999999999,2.3219012075082666,0.38628,0.0029652044370112067,0.389,0.3817,0.0028734996084913735,0.14921884400000002,0.0025000000000000022,2.3218961049363207,9.6818,0.0020756431059082724,9.6839,9.6803,0.0015215124054699,93.737253092,0.002200000000000202,2.321928080635638,0.0326,0.041364601896306294,0.0673,0.0053,0.025320545017830876,0.0015756639999999998,0.0316,1.9337430958091464,0.00708,0.002816944215160642,0.017,-0.0166,0.01348024480489876,0.0001955,0.002999999999999999,-1.0,-0.11216,0.004892587321068483,-0.0954,-0.1479,0.022268991894560473,0.012976592,0.021400000000000002,2.300192341097254,0.00046000000000000007,0.0028169442151606437,0.0072,-0.0093,0.006095326078234042,2.9933999999999995e-05,0.0031,-1.0,-0.00202,0.007264750870677449,0.0048,-0.0153,0.007984171841838075,5.507799999999998e-05,0.0055,-1.0,-0.00132,0.0017791226622067221,0.0021,-0.0065,0.003942334333868704,1.4176e-05,0.0060999999999999995,-1.0,-0.09266020568588096,0.09583221310911241,0.6339681718040195,11.419659999999999,0.7861132823808089,0.7553638320354249,0.9987980822111908,11.579340000000002,0.6636741408658986,-0.2968572101222484,-0.5239127125465445,0.15848,-0.48172105723297826,-0.3818908077329383,0.760471993326229,0.012759999999999999,Laying
-1.47244,0.03024508525751424,-1.4449,-1.5131,0.029418497582303495,2.168771912,0.044300000000000006,2.32169827806841,0.36558,0.008895613311033619,0.3962,0.3124,0.031553082258315115,0.13444521400000004,0.009599999999999997,2.3174988432065673,9.58114,0.0302450852575149,9.6415,9.5457,0.038212602633163034,91.799411862,0.03829999999999956,2.321918924008105,-1.49326,0.008747353089182746,-1.4861,-1.5044,0.007484851367929727,2.229870246,0.009199999999999875,2.3219136073391273,0.37728,0.0008895613311033455,0.3818,0.3749,0.0029919893047937046,0.14234735999999998,0.003599999999999992,2.321891863398511,9.68492,0.0013343419966545657,9.6861,9.683,0.0012794530081249387,93.797676716,0.0015999999999998238,2.321928084815704,0.03352,0.034989412356732204,0.0632,-0.0019,0.02539177032032229,0.001639384,0.027,-1.0,-0.00712,0.021794252612032345,0.0425,-0.0478,0.03287517300334707,0.000915316,0.017699999999999997,-1.0,-0.1086,0.008154312201780797,-0.0772,-0.1469,0.02512956426204004,0.012299156000000002,0.010700000000000001,2.2914465336823158,0.0019399999999999999,0.005485628208470728,0.0066,-0.0038,0.004947524633592035,2.3345999999999996e-05,0.0092,-1.0,0.00054,0.0026686839933100833,0.0036,-0.0019,0.002252332124709853,4.35e-06,0.0031,-1.0,0.00136,0.000889561331103361,0.0033,-0.0028,0.00249359178696113,6.823999999999999e-06,0.0018000000000000002,-1.0,0.5174570028454466,-0.8628324534046964,-0.6668176786348353,11.41916,-0.9348907526509387,-0.9500772625501528,0.9989541500806408,11.55546,0.1883064809432579,0.3818789414786067,-0.41271987516728753,0.16699999999999998,-0.7714833015252499,-0.22621264583095316,0.3476909191336698,0.008799999999999999,Laying
-1.46336,0.005337367986620238,-1.4497,-1.4868,0.013967748565892748,2.141578568,0.0048000000000001375,2.3218756727009504,0.37496,0.005337367986620155,0.3855,0.3484,0.015120780403140582,0.14077791199999998,0.004799999999999971,2.320973575571696,9.60528,0.03380333058192795,9.6558,9.5612,0.0427281172063549,92.26286443199999,0.06700000000000017,2.3219166800646307,-1.48782,0.004299546433666102,-1.4835,-1.4929,0.003552041666422222,2.2136184460000004,0.0029999999999998916,2.321924806274328,0.37628,0.00029652044370108774,0.3766,0.3758,0.0003114482300479394,0.141586716,0.00030000000000002247,2.321927699474143,9.68582,0.0007413011092510733,9.6865,9.685,0.000571839138219664,93.815109334,0.0004999999999988347,2.3219280928759014,0.03288,0.012305598413596498,0.0521,0.0108,0.015420343705637692,0.0012713240000000001,0.013400000000000002,2.179402605651797,0.0017600000000000003,0.025500758158296354,0.0296,-0.0162,0.01858932489360493,0.000279548,0.0211,-1.0,-0.10134,0.010081695085838073,-0.0292,-0.1281,0.041400519320414324,0.011640998,0.020699999999999996,2.198404632436381,0.00204,0.003558245324413445,0.0066,-0.0063,0.005045592135716085,2.4528e-05,0.0036,-1.0,-0.0005400000000000001,0.006375189539574088,0.0067,-0.0111,0.0067433671114659035,3.667e-05,0.0049,-1.0,-1.6263032587282566e-20,0.0017791226622067226,0.0015,-0.0016,0.001290348790056394,1.332e-06,0.0019,-1.0,-0.3333779052605758,0.39967652593265157,-0.5911524452132408,11.4436,-0.8524085045868598,-0.8394241299183319,0.9996571255087721,11.54992,-0.13526247628650256,-0.10112229848263521,-0.012720660670543532,0.14817999999999998,0.926015185009461,0.5295188458610789,0.7230545588664445,0.010499999999999999,Laying
-1.44872,0.008895613311033619,-1.4317,-1.4724,0.015101721756144212,2.098972088,0.009600000000000053,2.3218655110358872,0.37854,0.010674735973240392,0.3879,0.3579,0.012308046148759771,0.143413722,0.009599999999999997,2.321311441411412,9.58256,0.03721331568448816,9.6139,9.5469,0.030323225422107965,91.82619175200001,0.05259999999999998,2.3219223152821296,-1.48424,0.0010378215529541362,-1.4788,-1.4874,0.0032377461296402535,2.202976764,0.001100000000000101,2.3219253469460948,0.38182,0.0008895613311033455,0.3844,0.3807,0.0015188811671753746,0.145788358,0.0010999999999999899,2.321918975443066,9.68616,0.0002965204437004293,9.687,9.6856,0.0005176871642213055,93.82169576,0.00019999999999953388,2.321928093238971,0.03548,0.009933434863987529,0.047,0.013,0.013331804078968458,0.00140102,0.007300000000000001,2.22367845888056,-0.0032800000000000004,0.006819970205125769,0.0072,-0.0228,0.01161774504798586,0.000118736,0.0063999999999999994,-1.0,-0.10361999999999999,0.03795461679374341,-0.0716,-0.1392,0.03069058487549561,0.011490634,0.053500000000000006,2.2713227808293213,0.00374,0.000889561331103361,0.0059,0.0023,0.001728583234906552,1.6377999999999998e-05,0.003,2.201327492820683,0.00262,0.006375189539574088,0.0177,-0.0062,0.009117949330852852,7.3374e-05,0.0049,-1.0,0.0021,0.0,0.0021,0.0021,0.0,4.409999999999999e-06,0.0,2.3219280948873626,-0.5532496513626056,0.7470185294840757,-0.4960682962823699,11.40982,-0.6698182938585271,-0.7236375125731807,0.9951438339243535,11.55222,-0.39627337404334995,0.7240894596181369,-0.42239010360064955,0.14661999999999997,-0.6523007653934586,0.0,0.0,0.01174,Laying
-1.4638,0.016012103959860382,-1.4485,-1.4784,0.012110119735163674,2.1428277639999997,0.01550000000000007,2.3218885819326287,0.38212,0.012453858635447002,0.3938,0.3723,0.009201195574489214,0.14608342400000002,0.014400000000000024,2.321593955081764,9.63834,0.008747353089183734,9.6774,9.5828,0.03441435746893999,92.898545434,0.008300000000000196,2.321920731763131,-1.48414,0.0057821486521718694,-1.4792,-1.4884,0.00393039438224712,2.202683898,0.006099999999999994,2.3219240474454677,0.38118,0.0029652044370111243,0.3863,0.377,0.0034317633951075222,0.145307614,0.0022999999999999687,2.3218813715994537,9.68618,0.0005930408874008586,9.6869,9.6856,0.0005495452665610039,93.822083234,0.0007999999999999119,2.32192809302984,0.02012,0.009340393976585292,0.0399,0.0032,0.013505443347036038,0.000550732,0.0098,2.035449128409441,-0.0012200000000000002,0.004151286211815685,0.0036,-0.008,0.005149951456081892,2.2706e-05,0.0081,-1.0,-0.0553,0.008450832645481927,-0.0392,-0.1033,0.027040987408007127,0.0036430620000000003,0.0058999999999999955,2.20348635832373,0.00314,0.004596066877367366,0.0127,-0.0026,0.005947520491767977,3.8157999999999996e-05,0.004900000000000001,-1.0,-0.00264,0.0026686839933100837,0.0005,-0.0074,0.0030802597293085533,1.4560000000000005e-05,0.003,-1.0,0.00196,0.0008895613311033616,0.0027,0.0002,0.0010285912696499032,4.688e-06,0.0006000000000000003,2.09183987601791,0.22568470009251196,-0.02803855781883232,0.3369129227669124,11.48426,0.4623676692968426,0.23702093889158832,0.9706334745136893,11.5515,0.05586437347496942,-0.4501658941810547,0.16063093075529924,0.07952000000000001,-0.9494043383235244,-0.3864814177273131,0.13927103845878017,0.0093,Laying
-1.44944,0.03365507036007708,-1.421,-1.4868,0.02748968897605061,2.1014808599999997,0.03950000000000009,2.321720903096988,0.38522,0.014084721075803231,0.3986,0.3687,0.01211804439668381,0.14851192600000002,0.015500000000000014,2.321355067788254,9.60914,0.022980334386835947,9.6606,9.5792,0.031114433949535475,92.33634602600002,0.01670000000000016,2.3219220501112274,-1.46628,0.0029652044370112067,-1.4534,-1.4722,0.007465386795069597,2.150021624,0.0033999999999998476,2.3219131074277795,0.38534,0.0022239033277584048,0.3879,0.381,0.0027682124195950067,0.14849304600000002,0.0029000000000000137,2.3218982654189064,9.68874,0.0002965204437004293,9.6906,9.688,0.0010573551910307835,93.871683682,0.0002999999999993008,2.3219280880147433,0.00772,0.029207263704560355,0.0315,-0.015,0.021107510511663853,0.0004160199999999999,0.0374,-1.0,-0.0003399999999999999,0.0160121039598605,0.0118,-0.0136,0.011014899000898736,9.7178e-05,0.0173,-1.0,-0.0796,0.023573375274239066,-0.0274,-0.1221,0.035539907146755464,0.007346627999999999,0.031299999999999994,2.191836821074379,0.00276,0.005485628208470727,0.0096,-0.002,0.0045807204673500865,2.4404e-05,0.004900000000000001,-1.0,-0.00116,0.003558245324413445,0.0073,-0.0086,0.005834209458015713,2.8576e-05,0.004200000000000001,-1.0,0.00134,0.0035582453244134443,0.0076,-0.0028,0.0041434285320251394,1.553e-05,0.0043,-1.0,-0.41742005663400994,0.08350172742759174,0.6243811483664191,11.443800000000001,0.6369951807127209,0.5715781604786122,0.9962544833646412,11.54036,0.7517771304309855,-0.15406731803838764,-0.5525195592740566,0.10682,0.010926147124740215,-0.3104415853838807,0.29818405858296526,0.011179999999999999,Laying
-1.45856,0.023128594608687478,-1.4377,-1.4832,0.017593123656701824,2.127644888,0.018000000000000016,2.3218441962185836,0.38858,0.02298033438683677,0.4106,0.3675,0.018552277488222305,0.151269766,0.029899999999999982,2.320613033502374,9.59114,0.076354014253037,9.6618,9.5181,0.05957816714199908,91.99280614599999,0.07900000000000063,2.32190583110835,-1.47542,0.001037821552953807,-1.472,-1.4779,0.002155690144710044,2.176867894,0.0008999999999999009,2.3219268626209413,0.38826,0.0029652044370112067,0.3924,0.3853,0.002823650119968851,0.150752206,0.003300000000000025,2.321897602539293,9.68726,0.00014826022185021465,9.6876,9.6868,0.0002966479394838238,93.84300637800001,0.00019999999999953388,2.3219280943462124,0.01234,0.03662027479708837,0.0414,-0.0191,0.02679053937493607,0.000726462,0.0451,-1.0,0.00388,0.006523449761424649,0.0105,-0.0039,0.00561444565384687,4.0272e-05,0.0057,-1.0,-0.0738,0.018977308396871714,-0.0457,-0.0945,0.023005651479582143,0.0058698479999999996,0.0409,2.263152851451244,0.00056,0.0017791226622067221,0.0059,-0.0112,0.006749666658435807,3.676e-05,0.0018000000000000002,-1.0,0.0027400000000000002,0.0026686839933100833,0.0128,-0.0013,0.005798534297561756,3.4406e-05,0.0031,-1.0,-0.0005000000000000001,0.0017791226622067226,0.0021,-0.0022,0.0017029386365926401,2.57e-06,0.0018000000000000002,-1.0,0.9567345712719394,-0.27503262477182944,-0.40331347810155255,11.438279999999999,0.5317143644224102,0.1408736571282665,0.913240524489481,11.55094,-0.6557001480013247,0.4116859825397511,0.2803472674858239,0.10369999999999999,-0.9595618939305823,0.7400338661285627,-0.8860938233567932,0.01,Laying
-1.4504000000000001,0.005337367986619908,-1.4389,-1.4688,0.011235212503553305,2.103761144,0.006000000000000005,2.321893538122787,0.36344,0.0017791226622067733,0.3711,0.3508,0.007576146777881217,0.132134552,0.0024000000000000132,2.3216757451410106,9.57512,0.06034191029317695,9.6259,9.5229,0.045483645412389924,91.68457802399999,0.07420000000000115,2.321915075716197,-1.47426,0.0031134646588617506,-1.4663,-1.4782,0.004823173229317001,2.173461158,0.0040999999999999925,2.3219219121212276,0.37454,0.004892587321068441,0.3801,0.3699,0.004755312818311746,0.140298302,0.008500000000000008,2.3218351526014547,9.68796,0.00029652044370306294,9.6893,9.6872,0.0007924645102459793,93.85656946400002,0.00020000000000131024,2.3219280910262,0.048979999999999996,0.009488654198435857,0.066,0.0156,0.0211858915318662,0.002758114,0.022899999999999997,2.1924097518346755,-0.0010199999999999999,0.008006051979930252,0.0245,-0.0332,0.020975747900849686,0.000353026,0.0108,-1.0,-0.12744,0.03276550902897377,-0.1016,-0.1528,0.022030274623798952,0.01662922,0.035100000000000006,2.304503400357902,0.0016599999999999998,0.004447806655516806,0.0096,-0.0038,0.005810163508886819,2.9761999999999997e-05,0.0085,-1.0,-0.006540000000000001,0.008006051979930252,0.0042,-0.0251,0.011322676362062108,0.00014533400000000003,0.0079,-1.0,2.000000000000001e-05,0.0017791226622067226,0.0027,-0.0046,0.003068713085317687,7.533999999999999e-06,0.0037,-1.0,-0.7945583026394475,0.7794361327928238,-0.8210124767124308,11.38896,-0.3569544813849604,-0.5540788605544211,0.9744404337022143,11.536760000000001,0.5222766981084185,0.01092617129649981,-0.8310911271269434,0.19036,0.44926321683972054,0.399067000427663,0.3393770836116945,0.015460000000000002,Laying
-1.44228,0.028317702373456842,-1.4198,-1.4676,0.02025554245138846,2.0804998279999998,0.031099999999999905,2.3218142975807043,0.3383,0.001779122662206691,0.3591,0.31,0.017700564962734942,0.114697538,0.0011999999999999789,2.3203298054867907,9.57826,0.03202420791972274,9.6175,9.5373,0.031811051538734196,91.74387418200001,0.04070000000000107,2.321921729274691,-1.47506,0.010229955307688514,-1.4648,-1.4906,0.010198921511610856,2.1758852180000003,0.010599999999999943,2.321900543336379,0.37329999999999997,0.009043873532884163,0.3833,0.3655,0.007470943715488692,0.139397542,0.01090000000000002,2.3216973788159376,9.68786,0.0016308624403576285,9.6897,9.6851,0.001828387267511985,93.854634054,0.001900000000000901,2.321928074331735,0.0225,0.0065234497614246505,0.0397,0.0055,0.012300406497347965,0.00062729,0.006200000000000001,2.1288199532746352,-0.0019399999999999995,0.012157338191745937,0.0333,-0.0276,0.022457248273107727,0.000407226,0.013000000000000001,-1.0,-0.10654,0.020163390171676187,-0.0779,-0.1536,0.03318302276767443,0.012231662,0.047700000000000006,2.267771231599272,-0.0014,0.004596066877367366,0.0053,-0.0063,0.004433395989532178,1.7684e-05,0.0036000000000000003,-1.0,0.0005400000000000001,0.0019273828840572825,0.0073,-0.0172,0.010350990290788606,8.6006e-05,0.0068000000000000005,-1.0,-0.00024000000000000003,0.003706505546264005,0.0057,-0.0083,0.005217087309984375,2.1831999999999997e-05,0.0037,-1.0,0.3685488660346978,-0.6756132956881623,-0.3793845894551028,11.358839999999997,-0.9442478263296687,-0.9592029716164286,0.9987624004632815,11.53622,0.5164113414294599,-0.5509424868135009,0.2414466697396998,0.14462000000000003,-0.022989738657934217,-0.03371170183826008,0.1537003923484645,0.014860000000000002,Laying
-1.4501600000000001,0.012453858635447002,-1.4329,-1.488,0.022353031114370113,2.103363752,0.015599999999999836,2.321791693447482,0.34262,0.017791226622067238,0.3651,0.3256,0.015198749948597741,0.117573266,0.014400000000000024,2.3207993609975603,9.58832,0.03914069856854885,9.6331,9.5565,0.030550237314954317,91.936627076,0.03480000000000061,2.3219222388498055,-1.4612,0.0007413011092527194,-1.4549,-1.4714,0.006104506532063012,2.1351352520000004,0.0006999999999999229,2.321918035194755,0.36484,0.008006051979930274,0.372,0.3589,0.005298395983691667,0.133130684,0.006699999999999984,2.321806462847973,9.6903,0.0007413011092510733,9.6912,9.6887,0.0009617692030832189,93.90191483,0.0004999999999988347,2.321928089202566,0.04022,0.017939486843917787,0.0758,0.0166,0.02250626579421829,0.002022874,0.0171,2.148161735211421,-0.00138,0.0007413011092528008,0.0051,-0.0092,0.005097744599330179,2.2694e-05,0.0006,-1.0,-0.11396,0.01512254262875712,-0.0768,-0.1322,0.02246848904577253,0.013390748000000003,0.019299999999999998,2.2978041736486983,0.00458,0.000889561331103361,0.0053,0.0041,0.0005019960159204452,2.1178e-05,0.0005999999999999998,2.31505356744965,-0.0015199999999999999,0.00815431220178081,0.0091,-0.0202,0.011317110938751108,0.000104772,0.007299999999999999,-1.0,0.0027,0.0026686839933100837,0.0064,-0.0004,0.002644806231087639,1.2886000000000002e-05,0.003,-1.0,-0.014374306448336802,-0.6389010564888098,-0.6058197579258722,11.3811,-0.20080946532360403,-0.3738347773933083,0.9836272673595108,11.51634,0.48530393191494176,0.7816272015966452,0.4346290609736583,0.15760000000000002,0.815328657110414,-0.3173071582536253,-0.2824471116459808,0.01524,Laying
-1.41428,0.003558245324413711,-1.3934,-1.4234,0.011957926241618996,2.0003023119999996,0.0036000000000000476,2.321886701284745,0.35244,0.012453858635447002,0.3651,0.34,0.010498714206987428,0.124302132,0.01429999999999998,2.3214166279568142,9.60412,0.010674735973241792,9.6594,9.584,0.03152954170298063,92.239916264,0.01440000000000019,2.3219218836394857,-1.43776,0.006078669095872957,-1.4279,-1.4459,0.006788814329468743,2.067190688,0.006199999999999983,2.321915222100759,0.36138,0.0032617248807122945,0.3645,0.3582,0.0029524566042534706,0.130602478,0.005199999999999982,2.321889594594385,9.69392,0.001186081774804351,9.6955,9.6928,0.001056882207248765,93.97208586,0.0010999999999992127,2.321928088028045,0.020880000000000003,0.017198185734664983,0.0391,-0.005,0.016937296124234235,0.0006654720000000001,0.0152,-1.0,-0.006540000000000001,0.015863843738009944,0.0105,-0.0257,0.01634298014439227,0.000256446,0.0269,-1.0,-0.11688,0.012602118857297628,-0.0777,-0.1632,0.03068740784100215,0.014414308,0.011300000000000004,2.2824427491614756,0.00214,0.0028169442151606437,0.0059,-0.0008,0.0025696303236068803,9.862e-06,0.0024999999999999996,-1.0,0.0033599999999999997,0.000889561331103361,0.0042,0.0024,0.0006841052550594827,1.1663999999999999e-05,0.0005999999999999998,2.2973308171471074,0.0003799999999999999,0.004447806655516806,0.0039,-0.0028,0.002845522799065226,6.622e-06,0.0043,-1.0,0.5017729001714728,0.3475896397626656,-0.48995839110164763,11.37084,-0.39309149403232063,-0.48855933871241325,0.9942888914185679,11.49306,0.05578457800325837,0.6632059501291875,-0.650345131178146,0.15241999999999997,-0.4368855139976724,-0.5501795891346717,0.468206689008666,0.008199999999999999,Laying
-1.41788,0.007116490648827093,-1.4126,-1.4246,0.004844791017164743,2.010402472,0.006000000000000005,2.3219213588781473,0.35028,0.005337367986620155,0.3555,0.3448,0.004329780594903163,0.122711076,0.005900000000000016,2.3218398865819196,9.59406,0.02134947194648095,9.6474,9.5577,0.03347817199310573,92.046883914,0.020400000000000418,2.321921073498244,-1.45012,0.00504084754291915,-1.4423,-1.456,0.006144672489238145,2.10287822,0.00990000000000002,2.321917728596414,0.34908,0.002668683993310119,0.357,0.345,0.005036566290638898,0.12187713999999998,0.005600000000000049,2.32180838609543,9.692540000000001,0.0007413011092510733,9.6934,9.6918,0.0007635443667529479,93.94533211800002,0.00140000000000029,2.321928091306189,0.01098,0.008302572423631369,0.0207,-0.0092,0.012138657256879773,0.00023843799999999997,0.0101,-1.0,-0.01364,0.02075643105907843,0.001,-0.0314,0.013919877873027477,0.0003410599999999999,0.0217,-1.0,-0.09828,0.03528593280043333,-0.0221,-0.1395,0.04628911319090051,0.011373104000000002,0.035699999999999996,2.1577895721764144,0.0008,0.0026686839933100833,0.0047,-0.002,0.0026860752037126587,6.412000000000001e-06,0.0031,-1.0,0.0003,0.0008895613311033611,0.0012,-0.0007,0.0008573214099741124,6.779999999999999e-07,0.0013,-1.0,0.00062,0.0019273828840572825,0.0039,-0.0046,0.003207335342616983,8.614e-06,0.0018999999999999998,-1.0,0.46279518274873255,-0.10617914215965389,0.696052135643255,11.362219999999999,0.9234668969017691,0.873326263359232,0.9929173110471783,11.49174,0.5567098574216138,-0.847522294029549,-0.03796488296294301,0.12698,-0.268148347355061,-0.02636634722497444,0.4373113239839424,0.0051199999999999996,Laying
