ACCELEROMETER X (m/s²),ACCELEROMETER Y (m/s²),ACCELEROMETER Z (m/s²),GRAVITY X (m/s²),GRAVITY Y (m/s²),GRAVITY Z (m/s²),LINEAR ACCELERATION X (m/s²),LINEAR ACCELERATION Y (m/s²),LINEAR ACCELERATION Z (m/s²),GYROSCOPE X (rad/s),GYROSCOPE Y (rad/s),GYROSCOPE Z (rad/s),Time since start in ms ,YYYY-MO-DD HH-MI-SS_SSS
-1.8747,0.0407,9.517,-1.8832,0.0461,9.624,0.0086,-0.0054,-0.1071,-0.0087,-0.0019,0.0051,25,2021-08-07 01:47:50:111
-1.8794,-0.0036,9.584,-1.9618,-0.078,9.6081,0.0824,0.0745,-0.0241,0.0756,0.2968,0.0485,524,2021-08-07 01:47:50:610
-2.0255,-0.0204,9.6067,-1.9825,-0.0658,9.604,-0.043,0.0455,0.0028,0.0035,-0.0349,-0.0303,1024,2021-08-07 01:47:51:110
-1.9297,0.3723,9.4547,-2.1536,0.1601,9.5659,0.2239,0.2122,-0.1112,0.0621,-0.0172,-0.0101,1524,2021-08-07 01:47:51:610
-2.2601,0.9876,9.3099,-2.2984,0.5729,9.5163,0.0382,0.4147,-0.2064,0.1513,0.0036,0.0033,2025,2021-08-07 01:47:52:111
-2.1919,0.4465,9.5301,-2.396,0.6291,9.4886,0.2041,-0.1825,0.0415,-0.0991,-0.0746,0.0357,2524,2021-08-07 01:47:52:610
-3.128,0.5866,9.7085,-2.778,0.6228,9.3843,-0.35,-0.0362,0.3242,0.1379,0.0781,0.6563,3025,2021-08-07 01:47:53:111
-3.6069,0.1772,8.8897,-2.8482,0.9099,9.3397,-0.7587,-0.7328,-0.45,-0.8896,1.0109,0.101,3524,2021-08-07 01:47:53:610
-2.4445,0.34,9.6127,-2.0834,0.5197,9.5687,-0.3611,-0.1797,0.044,0.0072,-0.2578,-0.1256,4024,2021-08-07 01:47:54:110
-1.2354,0.164,9.6941,-1.386,0.3814,9.7007,0.1506,-0.2174,-0.0066,4.00E-04,-0.1473,-0.117,4524,2021-08-07 01:47:54:610
-1.0558,0.1329,9.7396,-1.2593,0.2385,9.7225,0.2035,-0.1056,0.0171,-0.1376,0.1099,-0.0682,5025,2021-08-07 01:47:55:111
-1.5131,0.2753,9.5732,-1.6421,0.2258,9.6656,0.129,0.0496,-0.0923,0.0096,-0.0074,-0.0266,5525,2021-08-07 01:47:55:611
-1.6999,0.1915,9.5888,-1.7,0.2658,9.6545,1.00E-04,-0.0743,-0.0657,0.0261,-0.0147,-0.0046,6024,2021-08-07 01:47:56:110
-1.6185,0.2801,9.6103,-1.6383,0.2904,9.6645,0.0199,-0.0103,-0.0541,0.0053,-0.0025,-0.0022,6524,2021-08-07 01:47:56:610
-1.828,0.492,9.7169,-1.6368,0.3733,9.6619,-0.1912,0.1187,0.055,0.0328,-0.1064,0.021,7024,2021-08-07 01:47:57:110
-1.4916,0.431,9.6199,-1.5728,0.3349,9.6739,0.0812,0.096,-0.054,-0.0093,0.0103,-0.0389,7524,2021-08-07 01:47:57:610
-1.5263,0.237,9.6103,-1.5714,0.3234,9.6745,0.0451,-0.0863,-0.0642,0.0078,-0.0202,0.0131,8024,2021-08-07 01:47:58:110
-1.5371,0.182,9.5804,-1.5674,0.3076,9.6757,0.0304,-0.1257,-0.0953,-0.0112,-0.0135,-0.0028,8525,2021-08-07 01:47:58:611
-1.579,0.2825,9.5457,-1.6047,0.3026,9.6697,0.0257,-0.0201,-0.1241,4.00E-04,0.0079,0.0045,9025,2021-08-07 01:47:59:111
-1.6077,0.3089,9.5205,-1.6375,0.3025,9.6642,0.0298,0.0063,-0.1437,0.0084,-0.0123,-0.0034,9524,2021-08-07 01:47:59:610
-1.6101,0.3268,9.4786,-1.6307,0.2997,9.6655,0.0206,0.0271,-0.1868,0.0078,-0.0025,-0.0059,10024,2021-08-07 01:48:00:110
-1.6149,0.267,9.5505,-1.633,0.2971,9.6652,0.0181,-0.0301,-0.1147,-0.0081,0.0329,0.0027,10525,2021-08-07 01:48:00:611
-1.6388,0.2849,9.5253,-1.6722,0.2923,9.6586,0.0334,-0.0074,-0.1333,-0.0099,0.0244,0.0033,11025,2021-08-07 01:48:01:111
-1.7681,0.2215,9.5385,-1.7792,0.2431,9.6408,0.0111,-0.0217,-0.1023,-0.0057,0.0177,-0.0034,11524,2021-08-07 01:48:01:610
-1.7729,0.2035,9.499,-1.8027,0.2425,9.6365,0.0298,-0.039,-0.1375,-2.00E-04,0.0128,-0.0046,12025,2021-08-07 01:48:02:111
-1.7705,0.2538,9.4918,-1.7949,0.2584,9.6375,0.0244,-0.0046,-0.1457,0.023,-7.00E-04,0.0064,12524,2021-08-07 01:48:02:610
-1.7406,0.31,9.517,-1.7805,0.3179,9.6384,0.04,-0.0079,-0.1215,0.0041,0.0073,0.0057,13025,2021-08-07 01:48:03:111
-1.7753,0.3376,9.4547,-1.7886,0.3207,9.6368,0.0133,0.0169,-0.1821,0.0139,-0.0013,0.0045,13524,2021-08-07 01:48:03:610
-1.7729,0.3615,9.505,-1.7919,0.3309,9.6359,0.019,0.0307,-0.1309,-0.0044,0.0109,0.0027,14025,2021-08-07 01:48:04:111
-1.7657,0.3424,9.5277,-1.7929,0.346,9.6352,0.0272,-0.0037,-0.1074,0.0066,5.00E-04,0.0033,14524,2021-08-07 01:48:04:610
-1.7861,0.3531,9.5289,-1.8069,0.3475,9.6325,0.0208,0.0056,-0.1036,0.0114,-0.0019,0.0027,15024,2021-08-07 01:48:05:110
-1.7549,0.3519,9.4858,-1.8066,0.3427,9.6327,0.0516,0.0092,-0.1469,-0.0032,-1.00E-04,-0.0022,15525,2021-08-07 01:48:05:611
-1.7693,0.3328,9.6917,-1.7522,0.33,9.6432,0.0248,0.0063,-0.0077,-2.00E-04,-7.00E-04,0.0039,18863,2021-08-07 01:48:08:949
-1.7274,0.3472,9.7372,-1.7488,0.3347,9.6437,0.0106,0.0077,-0.0704,0.0011,-0.0031,9.00E-04,19363,2021-08-07 01:48:09:449
-1.7166,0.3484,9.5804,-1.7463,0.3399,9.6439,0.0057,0.0121,-0.0144,0.0035,0.003,0.0033,19863,2021-08-07 01:48:09:949
-1.6903,0.3747,9.5792,-1.7406,0.3466,9.6447,-0.0108,-0.0066,-0.0296,-8.00E-04,-0.0013,-0.0016,20362,2021-08-07 01:48:10:448
-1.6975,0.34,9.6139,-1.725,0.3497,9.6474,0.0347,-0.0097,-0.085,4.00E-04,-0.0043,2.00E-04,20863,2021-08-07 01:48:10:949
-1.6963,0.3747,9.5936,-1.7164,0.3503,9.6489,0.0117,-0.0091,-0.0578,0.0023,-1.00E-04,0.0027,21363,2021-08-07 01:48:11:449
-1.7142,0.3519,9.5493,-1.7207,0.3482,9.6482,-0.0092,0.0013,-0.0702,-0.0026,0.0225,0.0039,21863,2021-08-07 01:48:11:949
-1.7178,0.3723,9.5864,-1.7182,0.3501,9.6486,0.0123,-0.0042,-0.0634,0.0017,5.00E-04,-0.0022,22362,2021-08-07 01:48:12:448
-1.7142,0.34,9.6259,-1.708,0.3518,9.6504,0.0105,0.0013,-0.064,4.00E-04,0.0073,0.0015,22862,2021-08-07 01:48:12:948
-1.7274,0.3508,9.6307,-1.7025,0.3566,9.6512,0.0314,0.0074,-0.0791,-0.0032,0.0036,-4.00E-04,23367,2021-08-07 01:48:13:453
-1.7059,0.3819,9.6163,-1.7018,0.3625,9.6511,0.0019,0.017,-0.0252,0.0023,0.0018,0.0021,23863,2021-08-07 01:48:13:949
-1.6616,0.3771,9.6391,-1.7041,0.3629,9.6506,0.021,0.0166,-0.0152,-0.0069,-0.019,-4.00E-04,24362,2021-08-07 01:48:14:448
-1.6137,0.3974,9.5924,-1.6744,0.3722,9.6555,0.0607,0.0252,-0.0631,0.0066,-0.0147,0.0039,24863,2021-08-07 01:48:14:949
-1.6676,0.3771,9.596,-1.6709,0.3711,9.6561,0.0034,0.006,-0.0602,-8.00E-04,0.0109,-4.00E-04,25363,2021-08-07 01:48:15:449
-1.737,0.3723,9.5828,-1.7354,0.3568,9.6453,-0.0015,0.0154,-0.0625,4.00E-04,0.0128,0.0021,25867,2021-08-07 01:48:15:953
-1.743,0.255,9.6822,-1.7197,0.2624,9.6511,-0.0233,-0.0074,0.031,-0.0215,0.0109,-0.004,26363,2021-08-07 01:48:16:449
-1.7059,0.1987,9.6211,-1.6946,0.2171,9.6567,-0.0113,-0.0184,-0.0356,0.0041,0.0042,-0.0028,26863,2021-08-07 01:48:16:949
-1.6759,0.249,9.6079,-1.6938,0.267,9.6556,0.0179,-0.018,-0.0476,0.0078,0.0012,2.00E-04,27362,2021-08-07 01:48:17:448
-1.7202,0.2921,9.6403,-1.6994,0.314,9.6532,0.0258,0.0117,-0.0093,0.0041,0.0024,0.0033,27863,2021-08-07 01:48:17:949
-1.7071,0.328,9.6343,-1.6967,0.3156,9.6536,0.0268,0.0089,0.0034,4.00E-04,-0.0074,-0.0034,28363,2021-08-07 01:48:18:449
-1.634,0.328,9.6055,-1.6598,0.3237,9.6597,0.0258,0.0043,-0.0542,0.0072,-0.0086,0.01,28864,2021-08-07 01:48:18:950
-1.5622,0.3615,9.5361,-1.6163,0.317,9.6673,0.0601,-0.0213,-0.0391,-0.005,-0.0013,-0.0248,29363,2021-08-07 01:48:19:449
-1.5957,0.2981,9.5313,-1.6361,0.3161,9.664,0.0452,-0.006,-0.116,0.0072,0.0085,-0.0046,29862,2021-08-07 01:48:19:948
-1.6544,0.31,9.5337,-1.6717,0.3022,9.6584,0.0796,-0.0185,-0.0337,-2.00E-04,0.0109,0.0045,30363,2021-08-07 01:48:20:449
-1.6795,0.2765,9.566,-1.7075,0.3078,9.6519,0.028,-0.0313,-0.0859,0.0084,-0.0043,2.00E-04,30863,2021-08-07 01:48:20:949
-1.658,0.2909,9.5984,-1.6776,0.306,9.6572,0.0196,-0.0151,-0.0589,0.0029,-0.0031,-0.0126,31362,2021-08-07 01:48:21:448
-1.585,0.31,9.6438,-1.6476,0.3151,9.6621,0.0627,-0.005,-0.0183,-0.0026,0.0177,0.0271,31863,2021-08-07 01:48:21:949
-1.6532,0.3065,9.6235,-1.6435,0.3143,9.6628,-0.0085,-0.0198,0.0025,0.0017,0.0042,-0.0114,32363,2021-08-07 01:48:22:449
-1.5993,0.2981,9.6187,-1.6358,0.3119,9.6642,0.0364,-0.0138,-0.0455,0.0066,-7.00E-04,-4.00E-04,32862,2021-08-07 01:48:22:948
-1.5706,0.3244,9.7516,-1.6133,0.3124,9.668,0.0495,0.016,-0.0172,0.0023,-0.0141,0.01,33363,2021-08-07 01:48:23:449
-1.5945,0.31,9.6343,-1.6171,0.3105,9.6674,0.0012,0.015,-0.0255,0.0059,0.0097,0.0027,33862,2021-08-07 01:48:23:948
-1.6987,0.2622,9.6498,-1.6751,0.3143,9.6574,0.0444,0.0192,0.0034,-2.00E-04,0.0073,0.0021,34363,2021-08-07 01:48:24:449
-1.6807,0.3065,9.6055,-1.6822,0.3158,9.6561,0.0039,-0.0201,0.0105,-0.0044,0.003,-0.001,34863,2021-08-07 01:48:24:949
-1.6999,0.2837,9.5852,-1.6887,0.3125,9.6551,4.00E-04,-0.0048,-0.0941,0.0053,-0.0098,9.00E-04,35362,2021-08-07 01:48:25:448
-1.7023,0.3232,9.6307,-1.6939,0.3124,9.6542,0.0347,0.0061,-0.106,-2.00E-04,0.0024,9.00E-04,35862,2021-08-07 01:48:25:948
-1.6783,0.3424,9.6235,-1.69,0.3194,9.6547,0.0216,0.0112,-0.0217,0.0011,5.00E-04,0.0015,36363,2021-08-07 01:48:26:449
-1.6951,0.3388,9.5636,-1.6837,0.3266,9.6555,0.0126,-0.0082,-0.0572,0.0041,0.0042,0.0021,36864,2021-08-07 01:48:26:950
-1.6017,0.3388,9.6319,-1.6676,0.3299,9.6582,0.0384,-0.0056,-0.0746,0.0059,-0.0196,0.0021,37364,2021-08-07 01:48:27:450
-1.6269,0.3292,9.6714,-1.6587,0.3251,9.6599,0.035,0.0031,-0.0313,0.0017,0.0024,2.00E-04,37863,2021-08-07 01:48:27:949
-1.6436,0.3148,9.6774,-1.6717,0.3273,9.6576,-1.00E-04,0.0132,0.0028,-0.0038,0.0018,0.0027,38364,2021-08-07 01:48:28:450
-1.6903,0.322,9.6534,-1.686,0.3313,9.6549,-0.0024,-0.0101,-0.0445,-0.0044,0.006,2.00E-04,38863,2021-08-07 01:48:28:949
-1.67,0.3184,9.5912,-1.6855,0.3315,9.655,0.0048,-0.0023,-0.0363,0.0084,-0.0062,2.00E-04,39363,2021-08-07 01:48:29:449
-1.6472,0.3615,9.6259,-1.6815,0.3357,9.6556,7.00E-04,-2.00E-04,-0.0219,-0.0032,5.00E-04,9.00E-04,39863,2021-08-07 01:48:29:949
-1.6712,0.3388,9.5529,-1.6727,0.3436,9.6568,0.0327,0.0252,-0.0417,0.0029,-0.0031,9.00E-04,40363,2021-08-07 01:48:30:449
-1.6532,0.3436,9.5708,-1.6603,0.3464,9.6589,0.0478,-0.0148,-0.0426,0.0029,-7.00E-04,-4.00E-04,40863,2021-08-07 01:48:30:949
-1.6077,0.3376,9.6391,-1.6488,0.3422,9.661,0.0508,0.0155,0.0397,-0.002,5.00E-04,0.01,41362,2021-08-07 01:48:31:448
-1.6388,0.3256,9.6211,-1.6447,0.3448,9.6616,0.0243,-0.0182,-0.0718,0.0041,0.0024,9.00E-04,41867,2021-08-07 01:48:31:953
-1.652,0.3364,9.5217,-1.6575,0.347,9.6593,-9.00E-04,-0.0077,-0.1099,0.0029,-0.0043,0.0033,42363,2021-08-07 01:48:32:449
-1.6688,0.3376,9.5984,-1.682,0.3424,9.6553,0.0228,0.0107,-0.0689,0.0059,-0.0037,-0.0034,42863,2021-08-07 01:48:32:949
-1.6819,0.3567,9.6415,-1.6789,0.3527,9.6554,0.0317,-0.0144,-0.0344,0.0035,-0.0104,0.0021,43363,2021-08-07 01:48:33:449
-1.6544,0.3555,9.59,-1.6732,0.3522,9.6564,0.059,0.0079,0.0528,-0.0087,-0.0031,0.0051,43863,2021-08-07 01:48:33:949
-1.6328,0.3484,9.6355,-1.6661,0.3487,9.6578,0.0304,-0.0062,-0.0478,0.0066,-0.0092,0.0027,44363,2021-08-07 01:48:34:449
-1.5933,0.34,9.5996,-1.6534,0.3444,9.6601,0.0104,-0.0147,-0.0323,-0.0032,0.0189,0.0064,44863,2021-08-07 01:48:34:949
-1.6005,0.2969,9.6127,-1.6247,0.3184,9.6659,0.0384,0.0331,0.0038,-0.0142,-0.0025,-0.012,45363,2021-08-07 01:48:35:449
-1.6173,0.3232,9.645,-1.6501,0.3187,9.6616,0.0289,0.0172,-0.0309,0.0072,0.0067,0.0033,45863,2021-08-07 01:48:35:949
-1.6077,0.3376,9.5996,-1.6524,0.3194,9.6612,0.0235,-0.0283,-0.0278,0.0157,-0.0104,0.0045,46364,2021-08-07 01:48:36:450
-1.6125,0.3388,9.6043,-1.6383,0.3312,9.6632,0.0127,0.0064,-0.0744,4.00E-04,5.00E-04,0.0015,46862,2021-08-07 01:48:36:948
-1.6197,0.3328,9.6055,-1.6382,0.3295,9.6632,-0.0228,-0.0131,-0.0636,0.0053,5.00E-04,9.00E-04,47362,2021-08-07 01:48:37:448
-1.5538,0.3531,9.6043,-1.6118,0.3396,9.6673,0.0348,-0.0082,0.0055,0.0066,0.0201,0.0021,47864,2021-08-07 01:48:37:950
-1.6041,0.3304,9.6187,-1.6171,0.3389,9.6665,0.0498,-0.0078,-0.0536,0.0041,-0.0056,2.00E-04,48362,2021-08-07 01:48:38:448
-1.5862,0.334,9.6678,-1.6266,0.331,9.6651,-0.0169,-0.025,-0.0249,-0.0032,0.003,-0.001,48862,2021-08-07 01:48:38:948
-1.6388,0.3424,9.6007,-1.6463,0.3376,9.6616,0.0099,0.0094,0.0059,0.0041,0.0091,0.0021,49362,2021-08-07 01:48:39:448
-1.7095,0.3352,9.6139,-1.6844,0.345,9.6547,0.0285,-0.0197,-0.0553,0.0023,-0.0098,-0.0016,49862,2021-08-07 01:48:39:948
-1.6233,0.3412,9.6845,-1.6806,0.3413,9.6555,0.0186,0.0161,-0.0215,0.0041,-1.00E-04,-0.0028,50363,2021-08-07 01:48:40:449
-1.6544,0.3579,9.6295,-1.6673,0.3504,9.6575,0.0244,8.00E-04,-0.0569,0.0059,-0.0104,2.00E-04,50863,2021-08-07 01:48:40:949
-1.6352,0.3687,9.6319,-1.6701,0.3484,9.6571,0.0941,-0.0219,-0.0451,0.0035,0.0024,0.0057,51363,2021-08-07 01:48:41:449
-1.6388,0.3112,9.6007,-1.6789,0.3488,9.6556,0.0173,-0.0584,-0.0243,-8.00E-04,-0.0086,9.00E-04,51863,2021-08-07 01:48:41:949
-1.6508,0.3579,9.4954,-1.6407,0.3623,9.6616,-0.0343,0.0065,-0.1087,0.0096,0.039,-0.0248,52363,2021-08-07 01:48:42:449
-1.6951,0.3543,9.5409,-1.7279,0.3934,9.6452,-0.0581,0.0507,-0.0911,0.0176,0.0183,0.0076,52863,2021-08-07 01:48:42:949
-1.968,0.3268,9.5936,-1.874,0.408,9.6173,0.1142,0.1128,-0.244,0.0047,0.0146,-0.004,53364,2021-08-07 01:48:43:450
-1.7274,0.4597,9.4894,-1.8538,0.3951,9.6217,0.1084,-0.0958,-0.1479,-0.0081,-0.0037,-0.026,53862,2021-08-07 01:48:43:948
-1.8543,0.4142,9.5457,-1.8368,0.3686,9.626,-0.0295,0.0372,-0.0624,-0.0063,-0.0184,-0.0132,54363,2021-08-07 01:48:44:449
-1.9369,0.3855,9.7013,-1.8542,0.4067,9.6212,0.1986,0.1488,-0.273,0.0316,0.0115,0.0381,54863,2021-08-07 01:48:44:949
-1.6125,0.3017,9.3242,-1.9558,0.4007,9.6013,-0.1775,0.0315,-0.0041,-0.0441,-0.0819,-0.0028,55363,2021-08-07 01:48:45:449
-1.7394,0.2215,9.5948,-1.8493,0.3242,9.6253,-0.035,-0.0644,-0.137,-0.0124,-0.019,-0.0327,55863,2021-08-07 01:48:45:949
-1.7645,0.2466,9.6403,-1.7224,0.313,9.6491,0.1314,-0.0042,-0.0256,0.02,-0.0288,0.0027,56362,2021-08-07 01:48:46:448
-1.8208,0.2658,9.6331,-1.6775,0.2943,9.6576,0.0925,-0.0992,0.0281,-0.0179,-0.0367,-0.0132,56863,2021-08-07 01:48:46:949
-1.6496,0.3172,9.6103,-1.6409,0.3386,9.6625,0.0428,0.0337,-0.039,0.0041,0.0024,-0.0028,57363,2021-08-07 01:48:47:449
-1.5933,0.3184,9.7432,-1.558,0.3238,9.6767,-0.0174,0.009,-0.0197,-0.0014,-0.0123,0.0057,57862,2021-08-07 01:48:47:948
-1.4605,0.2682,9.742,-1.4731,0.3188,9.6901,-0.0119,0.0083,0.0121,-0.0038,-0.0074,9.00E-04,58362,2021-08-07 01:48:48:448
-1.2989,0.2945,9.675,-1.3316,0.2904,9.7115,0.0473,-0.0683,0.0064,0.0212,-0.0263,0.0064,58863,2021-08-07 01:48:48:949
-1.3671,0.2717,9.6235,-1.3589,0.3017,9.7074,-0.0082,-0.0299,-0.0839,-0.0148,0.0024,0.0021,59363,2021-08-07 01:48:49:449
-1.3707,0.2729,9.6558,-1.363,0.2889,9.7072,-0.0077,-0.016,-0.0514,-0.002,-0.0031,0.0033,59863,2021-08-07 01:48:49:949
-1.3036,0.2658,9.7205,-1.31,0.3034,9.714,0.0413,0.0121,-0.1162,0.023,-0.0227,-0.0016,60362,2021-08-07 01:48:50:448
-1.2761,0.2741,9.6977,-1.2876,0.307,9.7169,0.0024,-0.0544,-0.0228,-0.0038,-0.0013,-0.0022,60863,2021-08-07 01:48:50:949
-1.33,0.2861,9.7049,-1.3305,0.2898,9.7116,0.0037,-0.0012,-0.0064,-0.0057,0.006,-0.0046,61363,2021-08-07 01:48:51:449
-1.3467,0.255,9.6822,-1.3395,0.2881,9.7105,-0.0072,-0.0331,-0.0283,0.0029,-0.0049,-0.001,61862,2021-08-07 01:48:51:948
-1.3503,0.2873,9.6857,-1.3366,0.287,9.7109,-0.0137,3.00E-04,-0.0252,0.0072,0.0213,-0.001,62363,2021-08-07 01:48:52:449
-1.5131,0.249,9.8342,-1.4414,0.2363,9.6973,-0.0023,-0.1022,0.0699,0.0017,0.0067,0.007,62863,2021-08-07 01:48:52:949
-1.4748,0.1772,9.6702,-1.4932,0.2135,9.69,0.0183,-0.0363,-0.0198,-0.0099,0.0482,0.007,63363,2021-08-07 01:48:53:449
-1.6017,0.1772,9.7659,-1.6163,0.2009,9.6704,0.0146,-0.0237,0.0955,-0.0179,0.0494,0.0137,63863,2021-08-07 01:48:53:949
-1.6544,0.1724,9.6031,-1.6502,0.21,9.6645,-0.0042,-0.0377,-0.0614,-8.00E-04,0.0109,-0.0046,64363,2021-08-07 01:48:54:449
-1.652,0.1724,9.6726,-1.6554,0.2193,9.6634,0.0034,-0.047,0.0091,-8.00E-04,0.0079,0.007,64865,2021-08-07 01:48:54:951
-1.6484,0.1951,9.6127,-1.6617,0.2275,9.6622,0.0133,-0.0323,-0.0494,0.0059,-0.0117,-0.0016,65363,2021-08-07 01:48:55:449
-1.6855,0.2035,9.5792,-1.6858,0.2241,9.6581,3.00E-04,-0.0206,-0.0789,0.0023,-0.0221,0.0015,65863,2021-08-07 01:48:55:949
-1.67,0.2095,9.5876,-1.6819,0.2152,9.659,0.0119,-0.0057,-0.0714,-0.0044,0.0042,-0.0016,66363,2021-08-07 01:48:56:449
-1.67,0.2095,9.5876,-1.6819,0.2152,9.659,0.0119,-0.0057,-0.0714,-0.0044,0.0042,-0.0016,66863,2021-08-07 01:48:56:949
-1.634,0.2119,9.6738,-1.6757,0.2157,9.66,0.0416,-0.0038,0.0137,0.0078,-0.0086,0.0051,67362,2021-08-07 01:48:57:448
-1.3563,0.2813,9.6989,-1.442,0.2776,9.6961,-0.0328,-0.0538,-0.0893,-0.0044,-0.0147,0.0064,67863,2021-08-07 01:48:57:949
-1.3934,0.2598,9.663,-1.4053,0.2704,9.7017,0.0071,-0.0118,0.0116,0.0096,5.00E-04,0.0149,68363,2021-08-07 01:48:58:449
-1.397,0.2897,9.6726,-1.4077,0.29,9.7008,0.0107,-3.00E-04,-0.0282,-0.005,0.0073,0.0057,68863,2021-08-07 01:48:58:949
-1.3803,0.2801,9.6881,-1.4132,0.2872,9.7,0.0329,-0.007,-0.0119,0.0011,0.0024,0.0027,69363,2021-08-07 01:48:59:449
-1.3683,0.3089,9.6067,-1.4004,0.2976,9.7016,0.0321,0.0112,-0.0948,-8.00E-04,0.0085,2.00E-04,69862,2021-08-07 01:48:59:948
-1.3934,0.2741,9.6798,-1.404,0.2981,9.701,0.0106,-0.0239,-0.0213,-8.00E-04,0.003,0.0015,70363,2021-08-07 01:49:00:449
-1.4054,0.3292,9.6702,-1.4066,0.2977,9.7007,0.0012,0.0315,-0.0305,-2.00E-04,-0.0111,9.00E-04,70863,2021-08-07 01:49:00:949
-1.4186,0.255,9.7109,-1.4055,0.2931,9.701,-0.0131,-0.0382,0.0099,-0.0057,0.0103,2.00E-04,71363,2021-08-07 01:49:01:449
-1.3539,0.2957,9.6738,-1.3915,0.3009,9.7028,0.0376,-0.0052,-0.029,0.0035,-0.0111,-4.00E-04,71863,2021-08-07 01:49:01:949
-1.3779,0.2933,9.6774,-1.3858,0.3003,9.7036,0.008,-0.007,-0.0262,0.0047,-0.0037,2.00E-04,72362,2021-08-07 01:49:02:448
-1.3659,0.3184,9.6857,-1.3854,0.3002,9.7037,0.0195,0.0183,-0.0179,0.0114,-0.0098,-4.00E-04,72862,2021-08-07 01:49:02:948
-1.3575,0.3112,9.736,-1.3792,0.3025,9.7045,0.0217,0.0087,0.0315,-0.0014,0.003,-4.00E-04,73362,2021-08-07 01:49:03:448
-1.385,0.2885,9.6438,-1.3958,0.3116,9.7018,0.0108,-0.0231,-0.058,-0.0038,-0.0043,-0.0028,73863,2021-08-07 01:49:03:949
-1.3946,0.2933,9.6558,-1.3948,0.306,9.7021,2.00E-04,-0.0127,-0.0463,0.0066,0.0018,-0.0028,74363,2021-08-07 01:49:04:449
-1.4102,0.2969,9.6043,-1.3965,0.3065,9.7019,-0.0137,-0.0096,-0.0975,4.00E-04,0.0073,9.00E-04,74863,2021-08-07 01:49:04:949
-1.3803,0.3352,9.5744,-1.4001,0.3324,9.7005,0.0198,0.0028,-0.1261,0.0029,5.00E-04,-0.0022,75374,2021-08-07 01:49:05:460
-1.3647,0.3376,9.5732,-1.4089,0.3304,9.6993,0.0442,0.0072,-0.1261,0.0047,0.0012,0.0027,75863,2021-08-07 01:49:05:949
-1.3659,0.346,9.5888,-1.4076,0.3306,9.6995,0.0417,0.0153,-0.1107,-2.00E-04,0.0024,2.00E-04,76364,2021-08-07 01:49:06:450
-1.4066,0.3376,9.5708,-1.4088,0.3333,9.6992,0.0022,0.0043,-0.1284,-0.0032,-0.0098,-0.0028,76863,2021-08-07 01:49:06:949
-1.3731,0.3304,9.5397,-1.4026,0.3352,9.7,0.0295,-0.0048,-0.1603,0.0157,-0.0123,0.0039,77363,2021-08-07 01:49:07:449
-1.4042,0.3172,9.6438,-1.4097,0.3357,9.699,0.0055,-0.0184,-0.0552,4.00E-04,0.0048,-4.00E-04,77863,2021-08-07 01:49:07:949
-1.4449,0.3053,9.6798,-1.4271,0.3277,9.6967,-0.0178,-0.0225,-0.017,-0.0105,0.0311,0.0045,78365,2021-08-07 01:49:08:451
-1.4353,0.3615,9.6379,-1.4405,0.3283,9.6947,0.0052,0.0332,-0.0569,0.0066,-7.00E-04,-0.0028,78863,2021-08-07 01:49:08:949
-1.4293,0.2873,9.6462,-1.4369,0.3295,9.6952,0.0076,-0.0422,-0.049,0.0102,0.0048,0.0039,79367,2021-08-07 01:49:09:453
-1.4293,0.3112,9.5732,-1.4343,0.332,9.6955,0.0049,-0.0207,-0.1223,0.0059,-0.0135,0.0057,79863,2021-08-07 01:49:09:949
-1.3862,0.3484,9.6355,-1.4375,0.3379,9.6948,0.0099,0.0234,-0.0962,0.0053,-0.0031,2.00E-04,80363,2021-08-07 01:49:10:449
-1.4198,0.3484,9.5181,-1.4344,0.3397,9.6952,0.0374,-0.0117,-0.0945,0.0053,-0.0159,2.00E-04,80863,2021-08-07 01:49:10:949
-1.4042,0.334,9.56,-1.4225,0.3425,9.6969,0.0373,-0.0165,-0.0916,0.0066,-0.0043,0.0021,81363,2021-08-07 01:49:11:449
-1.3946,0.3268,9.7097,-1.4223,0.3405,9.697,0.0223,-0.0061,0.004,-0.005,0.0079,0.0027,81862,2021-08-07 01:49:11:948
-1.4293,0.3172,9.6139,-1.4529,0.3467,9.6922,0.0143,0.0011,-0.0752,-0.0118,0.017,-0.004,82363,2021-08-07 01:49:12:449
-1.4569,0.3328,9.6726,-1.4853,0.3412,9.6875,4.00E-04,-0.0263,-0.0127,0.0035,0.0036,-0.001,82863,2021-08-07 01:49:12:949
-1.4688,0.3352,9.6905,-1.4801,0.3382,9.6884,0.0147,-0.0093,0.0095,0.0072,0.003,0.0027,83362,2021-08-07 01:49:13:448
-1.4413,0.3448,9.6319,-1.4711,0.3419,9.6897,0.0106,0.0213,0.0489,0.0041,0.0048,0.0045,83862,2021-08-07 01:49:13:948
-1.4317,0.3436,9.6295,-1.4686,0.3513,9.6897,0.0143,-0.0145,-0.0173,0.0011,-0.0031,-0.001,84363,2021-08-07 01:49:14:449
-1.4186,0.3304,9.669,-1.4626,0.3495,9.6907,0.0282,0.0349,-0.0674,0.0053,-7.00E-04,9.00E-04,84864,2021-08-07 01:49:14:950
-1.409,0.3352,9.6726,-1.4501,0.3497,9.6925,0.0297,-0.0126,-0.0454,-0.0014,0.0036,2.00E-04,85362,2021-08-07 01:49:15:448
-1.5119,0.3053,9.6618,-1.5241,0.3358,9.6817,-0.0046,-0.0108,-0.0457,0.0041,0.0183,-0.0016,85863,2021-08-07 01:49:15:949
-1.5395,0.3352,9.6235,-1.5367,0.3327,9.6798,-0.0028,0.0025,-0.0563,0.0041,0.006,-0.001,86363,2021-08-07 01:49:16:449
-1.5107,0.328,9.6426,-1.535,0.3271,9.6802,0.0243,9.00E-04,-0.0376,0.0072,-0.008,2.00E-04,86862,2021-08-07 01:49:16:948
-1.5215,0.3424,9.5948,-1.5309,0.3292,9.6808,0.0094,0.0132,-0.0861,0.0084,5.00E-04,0.0015,87362,2021-08-07 01:49:17:448
-1.5239,0.3352,9.6714,-1.5292,0.3416,9.6807,0.0053,-0.0064,-0.0093,0.009,-0.0019,0.0045,87863,2021-08-07 01:49:17:949
-1.4928,0.3412,9.6726,-1.5146,0.3477,9.6827,0.0218,-0.0065,-0.0102,0.0047,-0.0031,0.0021,88363,2021-08-07 01:49:18:449
-1.4437,0.3639,9.6534,-1.491,0.3519,9.6863,0.0473,0.0121,-0.0328,0.0017,-0.0098,-4.00E-04,88863,2021-08-07 01:49:18:949
-1.4569,0.3531,9.6522,-1.4799,0.3535,9.6879,0.023,-4.00E-04,-0.0357,0.0023,0.0079,0.0021,89363,2021-08-07 01:49:19:449
-1.4617,0.4094,9.6822,-1.4879,0.3594,9.6865,0.0262,0.0501,-0.0043,0.0029,0.0018,-0.0101,89863,2021-08-07 01:49:19:949
-1.4976,0.3519,9.6223,-1.5135,0.3531,9.6827,0.0159,-0.0012,-0.0604,0.0053,-0.0013,-0.0016,90364,2021-08-07 01:49:20:450
-1.506,0.3496,9.6199,-1.5053,0.3509,9.6841,0.0341,-0.0121,-0.0163,0.0072,0.0067,2.00E-04,90863,2021-08-07 01:49:20:949
-1.5107,0.3555,9.7025,-1.5031,0.3492,9.6845,0.0295,-0.0152,-0.0658,0.0017,0.0024,9.00E-04,91364,2021-08-07 01:49:21:450
-1.4365,0.3735,9.6331,-1.5038,0.3602,9.684,-0.0093,-0.0023,6.00E-04,0.0017,-7.00E-04,0.0076,91863,2021-08-07 01:49:21:949
-1.4916,0.3615,9.6355,-1.4856,0.3703,9.6864,0.0228,-0.004,-0.0294,0.0017,-0.0037,0.0076,92363,2021-08-07 01:49:22:449
-1.4281,0.3543,9.675,-1.4661,0.373,9.6893,-4.00E-04,0.0268,-0.0335,-0.002,0.006,-4.00E-04,92862,2021-08-07 01:49:22:948
-1.4736,0.3591,9.5828,-1.4787,0.3612,9.6878,0.0494,-0.0284,-0.0858,-0.0081,-0.0135,-0.0034,93363,2021-08-07 01:49:23:449
-1.4748,0.3519,9.6343,-1.4844,0.3633,9.6868,-0.0095,-0.0233,-0.0813,0.0041,0.006,-0.0034,93863,2021-08-07 01:49:23:949
-1.4832,0.3376,9.6379,-1.4933,0.3569,9.6857,0.0341,0.0022,-0.0802,0.009,-0.0037,0.0045,94363,2021-08-07 01:49:24:449
-1.4509,0.3723,9.6307,-1.4926,0.3556,9.6859,-0.0253,-0.0264,0.0011,4.00E-04,0.017,0.007,94863,2021-08-07 01:49:24:949
-1.47,0.3508,9.6379,-1.4873,0.3632,9.6864,0.0352,0.0079,-0.0186,4.00E-04,-0.0019,0.0015,95362,2021-08-07 01:49:25:448
-1.4581,0.3675,9.6486,-1.4815,0.3669,9.6872,0.0054,0.0258,-0.0349,0.0059,5.00E-04,0.0027,95862,2021-08-07 01:49:25:948
-1.4317,0.3723,9.6618,-1.4703,0.3675,9.6888,0.0206,-0.0036,-0.027,0.0011,0.0024,2.00E-04,96363,2021-08-07 01:49:26:449
-1.4617,0.34,9.6822,-1.4739,0.3647,9.6884,0.0087,-0.0045,-0.0584,0.0078,0.0036,0.0015,96863,2021-08-07 01:49:26:949
-1.506,0.3603,9.6534,-1.5003,0.3768,9.6839,-0.0056,-0.0165,-0.0304,0.0059,0.0042,-0.0016,97363,2021-08-07 01:49:27:449
-1.506,0.3591,9.6462,-1.5048,0.3705,9.6834,-0.0011,-0.0114,-0.0372,0.0059,0.003,0.0015,97862,2021-08-07 01:49:27:948
-1.5012,0.407,9.7516,-1.5026,0.3698,9.6838,0.0015,0.0372,0.0678,0.0023,-0.0135,0.0021,98363,2021-08-07 01:49:28:449
-1.4784,0.3687,9.6474,-1.4942,0.3747,9.6849,0.0158,-0.006,-0.0375,0.0059,0.0024,-0.0016,98863,2021-08-07 01:49:28:949
-1.4449,0.3986,9.6403,-1.4815,0.3835,9.6865,0.0366,0.0151,-0.0463,-8.00E-04,-0.0019,0.0027,99363,2021-08-07 01:49:29:449
-1.4413,0.3819,9.6163,-1.4684,0.3822,9.6885,0.0271,-3.00E-04,-0.0722,0.0023,-0.0019,0.0051,99863,2021-08-07 01:49:29:949
-1.4186,0.3915,9.6845,-1.4619,0.3835,9.6895,0.0433,0.0079,-0.0049,4.00E-04,-0.0019,-0.0022,100364,2021-08-07 01:49:30:450
-1.4617,0.3843,9.6474,-1.4699,0.3872,9.6881,0.0083,-0.0029,-0.0407,0.0151,0.0012,0.0021,100866,2021-08-07 01:49:30:952
-1.47,0.3663,9.6175,-1.4913,0.3802,9.6851,0.0212,-0.0138,-0.0676,0.0011,-0.0013,-0.0022,101364,2021-08-07 01:49:31:450
-1.4964,0.3412,9.6151,-1.4941,0.3703,9.6851,-0.0022,-0.0291,-0.07,0.0023,0.0042,-0.001,101863,2021-08-07 01:49:31:949
-1.4784,0.3543,9.56,-1.4907,0.368,9.6857,0.0171,0.0127,-0.0442,-8.00E-04,-7.00E-04,2.00E-04,102368,2021-08-07 01:49:32:454
-1.4736,0.3639,9.669,-1.4983,0.373,9.6843,0.0211,-0.0054,-0.0489,-0.0014,0.0042,0.0057,102863,2021-08-07 01:49:32:949
-1.4365,0.3795,9.645,-1.4876,0.3727,9.686,-0.004,-0.0303,0.0021,0.0096,-0.0129,0.0033,103363,2021-08-07 01:49:33:449
-1.4593,0.3699,9.6331,-1.4741,0.3708,9.6881,0.0148,-9.00E-04,-0.0551,-8.00E-04,-1.00E-04,-0.0022,103863,2021-08-07 01:49:33:949
-1.4222,0.3915,9.6618,-1.4809,0.3737,9.687,0.0587,0.0177,-0.0252,0.0035,0.0036,0.0064,104365,2021-08-07 01:49:34:451
-1.4844,0.3747,9.6139,-1.4879,0.3766,9.6858,0.0035,-0.0019,-0.0719,-0.0032,0.0018,-4.00E-04,104862,2021-08-07 01:49:34:948
-1.4808,0.3508,9.657,-1.4902,0.3738,9.6856,0.0094,-0.0231,-0.0285,0.0023,0.0036,-0.001,105366,2021-08-07 01:49:35:452
-1.4605,0.3699,9.5696,-1.4847,0.3735,9.6864,0.0135,0.0036,-0.033,0.0059,-1.00E-04,0.0051,105862,2021-08-07 01:49:35:948
-1.4952,0.3783,9.6474,-1.4834,0.3775,9.6865,0.0457,0.0031,-0.0642,-0.0026,0.0024,-4.00E-04,106362,2021-08-07 01:49:36:448
-1.4305,0.3903,9.681,-1.4659,0.3824,9.6889,0.0341,0.0156,0.0175,-0.002,-0.0025,0.0027,106863,2021-08-07 01:49:36:949
-1.4222,0.3891,9.5864,-1.4624,0.3872,9.6893,0.0387,0.0017,-0.1031,0.0041,5.00E-04,-4.00E-04,107363,2021-08-07 01:49:37:449
-1.409,0.3687,9.651,-1.4607,0.3874,9.6895,0.0567,-0.0162,-0.0378,-2.00E-04,-1.00E-04,0.0015,107862,2021-08-07 01:49:37:948
-1.4545,0.3388,9.6941,-1.4767,0.395,9.6868,-0.0197,0.0192,-0.001,0.0047,-0.0013,-4.00E-04,108362,2021-08-07 01:49:38:448
-1.4365,0.3843,9.6283,-1.4759,0.3868,9.6872,0.0393,-0.0025,-0.059,0.0029,0.0036,-0.0034,108863,2021-08-07 01:49:38:949
-1.4497,0.3915,9.6199,-1.4727,0.3841,9.6878,0.023,0.0073,-0.0679,-2.00E-04,0.0042,9.00E-04,109363,2021-08-07 01:49:39:449
-1.4617,0.3759,9.6187,-1.4726,0.3825,9.6879,0.0109,-0.0067,-0.0692,0.0017,-0.0062,9.00E-04,109865,2021-08-07 01:49:39:951
-1.4329,0.3819,9.6594,-1.4781,0.3838,9.687,0.0452,-0.0019,-0.0276,0.0078,0.0012,-0.0022,110363,2021-08-07 01:49:40:449
-1.4437,0.3567,9.6295,-1.46,0.3944,9.6893,0.0163,-0.0376,-0.0599,0.0059,-0.0074,0.0057,110863,2021-08-07 01:49:40:949
-1.4126,0.3879,9.6666,-1.4565,0.3899,9.69,0.044,-0.0021,-0.0234,4.00E-04,0.0036,2.00E-04,111362,2021-08-07 01:49:41:448
-1.4748,0.3567,9.7037,-1.4581,0.3913,9.6897,-0.0167,-0.0346,0.014,-8.00E-04,0.025,0.0015,111862,2021-08-07 01:49:41:948
-1.4605,0.3591,9.6606,-1.4601,0.3833,9.6898,-3.00E-04,-0.0242,-0.0292,0.0035,0.0024,-4.00E-04,112363,2021-08-07 01:49:42:449
-1.4617,0.3783,9.6498,-1.4609,0.3869,9.6895,-8.00E-04,-0.0086,-0.0397,0.0072,0.006,0.0076,112863,2021-08-07 01:49:42:949
-1.3946,0.407,9.645,-1.4434,0.393,9.6919,0.0488,0.014,-0.0468,0.0041,5.00E-04,0.0057,113363,2021-08-07 01:49:43:449
-1.4569,0.3926,9.645,-1.4447,0.4046,9.6912,-0.0122,-0.0119,-0.0462,0.0035,-1.00E-04,0.007,113866,2021-08-07 01:49:43:952
-1.4186,0.3998,9.6163,-1.4389,0.4084,9.6919,0.0203,-0.0086,-0.0756,-2.00E-04,0.0018,0.0027,114363,2021-08-07 01:49:44:449
-1.4341,0.3747,9.657,-1.4401,0.4004,9.6921,0.006,-0.0257,-0.0351,0.0023,0.0115,9.00E-04,114863,2021-08-07 01:49:44:949
-1.4952,0.3388,9.6367,-1.4711,0.3961,9.6876,-0.024,-0.0573,-0.0509,0.0017,-0.0013,-0.001,115363,2021-08-07 01:49:45:449
-1.4748,0.3986,9.5948,-1.4778,0.392,9.6867,0.003,0.0067,-0.092,-2.00E-04,5.00E-04,-0.0028,115862,2021-08-07 01:49:45:948
-1.4856,0.3938,9.5852,-1.477,0.3907,9.6869,-0.0086,0.0032,-0.1017,0.0029,-0.0098,0.0015,116363,2021-08-07 01:49:46:449
-1.4868,0.407,9.5768,-1.482,0.397,9.6859,-0.0048,0.0101,-0.1091,0.0145,0.0042,0.0033,116863,2021-08-07 01:49:46:949
-1.4736,0.3891,9.6498,-1.4823,0.3968,9.6859,0.0087,-0.0077,-0.036,0.0023,0.0024,0.0021,117362,2021-08-07 01:49:47:448
-1.4461,0.4034,9.657,-1.4816,0.397,9.6859,0.0355,0.0064,-0.0289,0.0035,-0.0025,-4.00E-04,117863,2021-08-07 01:49:47:949
-1.4389,0.3891,9.6762,-1.4701,0.3946,9.6878,0.0312,-0.0056,-0.0116,4.00E-04,0.0018,9.00E-04,118365,2021-08-07 01:49:48:451
-1.4533,0.3759,9.6845,-1.4638,0.3911,9.6889,0.0105,-0.0152,-0.0044,-0.005,-0.0111,-0.004,118863,2021-08-07 01:49:48:949
-1.4904,0.3735,9.663,-1.4846,0.394,9.6856,-0.0058,-0.0205,-0.0226,0.0078,0.0305,0.0051,119363,2021-08-07 01:49:49:449
-1.488,0.3879,9.5828,-1.5069,0.3984,9.682,0.0189,-0.0106,-0.0992,0.0041,-0.0025,-0.0016,119863,2021-08-07 01:49:49:949
-1.4976,0.3759,9.6283,-1.5057,0.3931,9.6824,0.0081,-0.0172,-0.0541,0.0029,5.00E-04,9.00E-04,120363,2021-08-07 01:49:50:449
-1.4892,0.3831,9.6007,-1.5,0.389,9.6834,0.0108,-0.006,-0.0827,0.0035,0.0042,9.00E-04,120863,2021-08-07 01:49:50:949
-1.4844,0.3807,9.5924,-1.5078,0.3936,9.6821,0.0234,-0.0129,-0.0897,0.0096,-0.0074,0.0027,121363,2021-08-07 01:49:51:449
-1.5071,0.3843,9.6115,-1.5058,0.3927,9.6824,-0.0013,-0.0085,-0.0709,0.0017,-0.0013,0.0045,121862,2021-08-07 01:49:51:948
-1.476,0.3831,9.5804,-1.5013,0.3948,9.683,0.0253,-0.0117,-0.1026,-2.00E-04,-0.0013,0.0015,122363,2021-08-07 01:49:52:449
-1.4377,0.3819,9.5888,-1.4892,0.3943,9.6849,0.0515,-0.0125,-0.0961,0.0023,-7.00E-04,0.0033,122862,2021-08-07 01:49:52:948
-1.4784,0.3998,9.6019,-1.489,0.3989,9.6847,0.0105,0.001,-0.0828,0.0133,0.0122,9.00E-04,123362,2021-08-07 01:49:53:448
-1.5155,0.3531,9.6738,-1.5199,0.3951,9.6801,0.0044,-0.042,-0.0063,-0.002,-7.00E-04,-0.0016,123863,2021-08-07 01:49:53:949
-1.5562,0.3519,9.681,-1.5231,0.3828,9.6801,-0.0331,-0.0308,9.00E-04,-0.0124,0.006,-0.001,124364,2021-08-07 01:49:54:450
-1.5048,0.3603,9.6606,-1.5228,0.3725,9.6805,0.018,-0.0122,-0.0199,0.0035,-0.0013,-0.001,124863,2021-08-07 01:49:54:949
-1.4964,0.3615,9.6355,-1.52,0.3676,9.6812,0.0236,-0.006,-0.0457,0.0023,0.006,0.0021,125363,2021-08-07 01:49:55:449
-1.5167,0.3747,9.6283,-1.5153,0.3719,9.6817,-0.0014,0.0028,-0.0534,-0.0014,0.0103,0.0076,125863,2021-08-07 01:49:55:949
-1.4617,0.3747,9.6295,-1.4989,0.3759,9.6841,0.0241,-0.0095,-0.0427,0.0047,0.0012,0.0015,126363,2021-08-07 01:49:56:449
-1.4772,0.3687,9.6415,-1.4969,0.3773,9.6844,0.0424,0.0226,-0.0549,0.0023,5.00E-04,0.0021,126863,2021-08-07 01:49:56:949
-1.4581,0.3555,9.6391,-1.4891,0.3774,9.6856,0.0322,0.0032,-0.0549,-2.00E-04,-0.0031,0.0015,127362,2021-08-07 01:49:57:448
-1.4712,0.3771,9.5505,-1.4767,0.3784,9.6874,0.0055,-0.0013,-0.137,0.0102,-0.0031,0.0021,127862,2021-08-07 01:49:57:948
-1.4401,0.3962,9.7288,-1.4645,0.3811,9.6892,0.0244,0.0152,0.0397,0.0029,-1.00E-04,0.0015,128363,2021-08-07 01:49:58:449
-1.4856,0.3903,9.6415,-1.4908,0.3867,9.685,0.0052,0.0035,-0.0435,0.0059,0.0109,-0.001,128864,2021-08-07 01:49:58:950
-1.4641,0.3831,9.6307,-1.4902,0.3857,9.6851,0.0262,-0.0026,-0.0544,0.0029,-7.00E-04,-0.0034,129364,2021-08-07 01:49:59:450
-1.4688,0.3843,9.5888,-1.4892,0.3814,9.6854,0.0204,0.0029,-0.0966,4.00E-04,0.0036,0.0033,129862,2021-08-07 01:49:59:948
-1.5012,0.3663,9.6702,-1.4891,0.3826,9.6854,-0.0121,-0.0163,-0.0152,0.0078,0.0036,0.0051,130362,2021-08-07 01:50:00:448
-1.5083,0.3627,9.6654,-1.4903,0.3817,9.6852,-0.0181,-0.019,-0.0198,0.0011,0.0018,0.0033,130864,2021-08-07 01:50:00:950
-1.4796,0.3699,9.6247,-1.4861,0.3816,9.6859,0.0065,-0.0117,-0.0612,0.0072,-0.0031,0.0033,131364,2021-08-07 01:50:01:450
-1.4509,0.3771,9.657,-1.4812,0.3829,9.6866,0.0303,-0.0058,-0.0296,0.0053,-0.0019,0.0021,131863,2021-08-07 01:50:01:949
-1.421,0.3879,9.6379,-1.4662,0.3838,9.6888,0.028,-0.0044,-0.0917,0.0035,-0.0086,-4.00E-04,132362,2021-08-07 01:50:02:448
-1.4497,0.3843,9.6175,-1.4662,0.3822,9.6889,-0.0015,9.00E-04,-0.0606,0.0035,0.0103,9.00E-04,132862,2021-08-07 01:50:02:948
-1.5155,0.3484,9.5912,-1.4833,0.3796,9.6864,-0.0319,-0.0323,-0.0951,-0.002,-0.0043,0.0039,133363,2021-08-07 01:50:03:449
-1.4892,0.3747,9.6295,-1.4852,0.3755,9.6863,0.0175,-0.0248,-0.0292,0.0035,5.00E-04,-0.0022,133863,2021-08-07 01:50:03:949
-1.488,0.3555,9.6331,-1.4856,0.376,9.6862,-1.00E-04,-0.0386,-0.0603,0.0084,-0.0056,0.0057,134363,2021-08-07 01:50:04:449
-1.4365,0.3998,9.657,-1.483,0.3773,9.6865,0.0141,-0.008,-0.1123,-0.0069,0.014,2.00E-04,134863,2021-08-07 01:50:04:949
-1.4617,0.3891,9.645,-1.4825,0.3791,9.6865,0.022,0.0135,-0.0583,0.0023,-7.00E-04,0.0027,135363,2021-08-07 01:50:05:449
-1.47,0.3376,9.6462,-1.4824,0.379,9.6866,0.0171,0.0173,-0.1457,-8.00E-04,0.003,-0.0028,135863,2021-08-07 01:50:05:949
-1.4341,0.3555,9.6175,-1.477,0.3781,9.6874,0.0118,-0.0393,-0.0759,-0.0014,0.0012,2.00E-04,136363,2021-08-07 01:50:06:449
-1.4605,0.3855,9.6187,-1.4779,0.3806,9.6872,0.0318,0.0061,-0.0361,-8.00E-04,-7.00E-04,0.0015,136863,2021-08-07 01:50:06:949
-1.4617,0.3831,9.6199,-1.4767,0.3811,9.6873,-0.0065,0.0283,-0.01,-0.0093,0.0085,0.0021,137363,2021-08-07 01:50:07:449
-1.4916,0.3711,9.6869,-1.4809,0.3784,9.6868,0.0144,-0.0037,-0.0214,0.0047,-0.0013,2.00E-04,137863,2021-08-07 01:50:07:949
-1.4892,0.3998,9.7001,-1.4801,0.3797,9.6869,0.0184,-0.0027,-0.0346,0.0053,0.0024,2.00E-04,138363,2021-08-07 01:50:08:449
-1.4736,0.3699,9.6115,-1.4787,0.3801,9.6871,0.0087,-0.015,-0.0289,0.0047,0.0024,2.00E-04,138863,2021-08-07 01:50:08:949
-1.5203,0.3687,9.657,-1.4844,0.3819,9.6861,0.0276,0.0335,-0.0423,0.0084,-0.0074,0.0051,139362,2021-08-07 01:50:09:448
-1.4138,0.425,9.6798,-1.4817,0.3812,9.6866,-0.0147,-0.0364,0.0099,-0.0087,0.0177,0.0045,139862,2021-08-07 01:50:09:948
-1.4772,0.3891,9.6415,-1.4794,0.3835,9.6868,0.0153,-0.0076,-0.0574,0.0023,0.0012,-0.0016,140363,2021-08-07 01:50:10:449
-1.5012,0.3747,9.5888,-1.4884,0.3824,9.6855,0.0447,-5.00E-04,-0.0764,-2.00E-04,0.003,0.0051,140862,2021-08-07 01:50:10:948
-1.476,0.3807,9.5361,-1.4946,0.3871,9.6844,-0.0017,-0.0148,-0.0812,0.0029,-0.0037,-0.0022,141362,2021-08-07 01:50:11:448
-1.5131,0.3555,9.5636,-1.4922,0.387,9.6847,0.0593,0.0093,-0.145,0.0011,0.0048,-0.0034,141863,2021-08-07 01:50:11:949
-1.4988,0.3759,9.5732,-1.5013,0.3839,9.6834,0.0133,-0.0404,-0.1485,-0.005,0.0238,0.007,142363,2021-08-07 01:50:12:449
-1.488,0.4034,9.5385,-1.4995,0.3869,9.6836,0.0414,0.0093,-0.1487,0.0035,5.00E-04,0.0027,142862,2021-08-07 01:50:12:948
-1.4748,0.3663,9.6019,-1.5013,0.3852,9.6834,0.0289,-0.0118,-0.0982,-0.0063,-0.0147,2.00E-04,143363,2021-08-07 01:50:13:449
-1.4676,0.3783,9.5253,-1.4948,0.382,9.6845,0.0355,-0.03,-0.0574,0.0053,0.0018,0.0057,143863,2021-08-07 01:50:13:949
-1.4485,0.3531,9.6019,-1.4915,0.3817,9.6851,0.0418,0.0421,-0.0879,0.0041,0.006,-0.0022,144363,2021-08-07 01:50:14:449
-1.5347,0.3172,9.5996,-1.4983,0.3758,9.6842,0.039,0.0396,-0.1062,-0.0032,0.0036,-0.0028,144863,2021-08-07 01:50:14:949
-1.4892,0.3603,9.566,-1.5009,0.377,9.6838,0.0237,-0.0155,-0.1321,-0.0014,-0.0019,-0.0034,145363,2021-08-07 01:50:15:449
-1.4629,0.3579,9.5936,-1.4963,0.3785,9.6844,0.0407,0.019,-0.1471,0.0029,0.006,0.0039,145863,2021-08-07 01:50:15:949
-1.4617,0.3675,9.5852,-1.4934,0.3772,9.6849,0.0126,0.0059,-0.0339,0.009,0.0073,0.0045,146363,2021-08-07 01:50:16:449
-1.4641,0.3663,9.6043,-1.4836,0.3872,9.686,0.0351,0.0054,-0.0805,0.009,-0.0086,0.0045,146863,2021-08-07 01:50:16:949
-1.4617,0.3831,9.5433,-1.4782,0.387,9.6869,0.0561,-0.0123,-0.0825,-0.0032,5.00E-04,0.0045,147362,2021-08-07 01:50:17:448
-1.4617,0.3843,9.6223,-1.4729,0.3867,9.6877,0.0196,-0.0096,-0.0546,0.0023,0.0079,-4.00E-04,147863,2021-08-07 01:50:17:949
-1.4808,0.3723,9.5924,-1.5022,0.3871,9.6832,0.0213,-0.0148,-0.0908,4.00E-04,0.0067,0.0015,148363,2021-08-07 01:50:18:449
-1.4988,0.3639,9.5708,-1.508,0.3833,9.6824,0.0093,-0.0194,-0.1116,0.0096,-0.0037,9.00E-04,148863,2021-08-07 01:50:18:949
-1.4664,0.3747,9.5565,-1.5105,0.3769,9.6823,0.0441,-0.0022,-0.1258,0.0041,-0.0031,2.00E-04,149363,2021-08-07 01:50:19:449
-1.4988,0.3603,9.5828,-1.5121,0.3767,9.682,0.0373,-0.008,-0.1352,4.00E-04,0.006,0.0045,149863,2021-08-07 01:50:19:949
-1.4952,0.3747,9.5624,-1.5185,0.3801,9.6809,0.0329,-0.0114,-0.134,0.0035,5.00E-04,0.0021,150362,2021-08-07 01:50:20:448
-1.494,0.3998,9.5481,-1.522,0.3817,9.6803,0.0053,-0.0166,-0.0987,-2.00E-04,0.0048,0.0015,150862,2021-08-07 01:50:20:948
-1.4844,0.3891,9.5445,-1.5204,0.3859,9.6804,0.0419,0.0103,-0.1479,0.0072,-0.0153,0.0021,151363,2021-08-07 01:50:21:449
-1.4605,0.3867,9.5792,-1.5106,0.3884,9.6818,0.0382,0.0114,-0.0954,0.0029,-0.0019,9.00E-04,151862,2021-08-07 01:50:21:948
-1.4796,0.3759,9.5888,-1.5062,0.3864,9.6826,0.0673,0.017,-0.1201,0.0017,0.0036,-0.0046,152362,2021-08-07 01:50:22:448
-1.482,0.3388,9.5469,-1.4971,0.389,9.6839,0.0103,0.0133,-0.0987,-0.0093,-0.0013,-0.0065,152863,2021-08-07 01:50:22:949
-1.4916,0.3962,9.5541,-1.5044,0.3818,9.683,0.0523,-0.0478,-0.1469,0.0066,-0.0013,9.00E-04,153363,2021-08-07 01:50:23:449
-1.5131,0.3124,9.6415,-1.4961,0.3789,9.6844,0.0632,0.0425,-0.1064,-0.0026,0.0018,-0.0028,153863,2021-08-07 01:50:23:949
-1.4449,0.3687,9.572,-1.4928,0.3753,9.6851,0.0287,-0.0209,-0.0772,0.0029,-0.0019,0.0033,154363,2021-08-07 01:50:24:449
-1.4653,0.3783,9.5924,-1.4869,0.3749,9.686,0.0253,-0.0062,-0.1116,0.0066,5.00E-04,0.0027,154863,2021-08-07 01:50:24:949
-1.4473,0.3723,9.5457,-1.4861,0.3755,9.6861,-0.0019,-0.0032,-0.1009,-0.0038,0.0036,0.0027,155363,2021-08-07 01:50:25:449
-1.4497,0.3783,9.5612,-1.4835,0.3758,9.6865,0.0266,-0.0143,-0.1037,0.0029,-0.0025,2.00E-04,155863,2021-08-07 01:50:25:949
-1.4629,0.3831,9.584,-1.4886,0.3765,9.6857,0.0521,-0.0162,-0.1244,-0.0063,-0.0111,-0.001,156363,2021-08-07 01:50:26:449
-1.4868,0.3855,9.6462,-1.4856,0.3763,9.6862,0.0108,0.0068,-0.1213,0.0066,0.0067,0.0015,156862,2021-08-07 01:50:26:948
-1.4593,0.3484,9.5792,-1.4885,0.3762,9.6857,0.04,0.0296,-0.1281,0.0017,0.0024,-0.0016,157362,2021-08-07 01:50:27:448
-1.4581,0.3795,9.6558,-1.4929,0.3766,9.685,0.0349,0.0029,-0.0292,0.0053,0.0018,9.00E-04,157863,2021-08-07 01:50:27:949
-1.4473,0.3879,9.6079,-1.4844,0.3807,9.6862,0.0371,0.0072,-0.0783,0.0029,0.0036,0.0021,158363,2021-08-07 01:50:28:449
-1.4724,0.3807,9.5888,-1.4855,0.3819,9.686,0.013,-0.0012,-0.0972,0.0059,-0.0062,0.0021,158863,2021-08-07 01:50:28:949
-1.4413,0.3783,9.5469,-1.4851,0.3813,9.686,0.0438,-0.003,-0.1392,0.0053,-7.00E-04,0.0021,159363,2021-08-07 01:50:29:449
-1.4317,0.3579,9.5553,-1.4788,0.3808,9.687,0.047,-0.0228,-0.1318,0.0023,-0.0013,0.0021,159862,2021-08-07 01:50:29:948
-1.4509,0.3879,9.6139,-1.4874,0.3844,9.6856,0.0365,0.0034,-0.0716,0.0023,0.0177,0.0021,160363,2021-08-07 01:50:30:449
-1.47,0.3891,9.5828,-1.4838,0.3863,9.686,0.0138,0.0028,-0.1033,0.0127,-0.0074,0.0027,160863,2021-08-07 01:50:30:949
-1.4485,0.3747,9.6391,-1.4884,0.38,9.6856,0.0399,-0.0053,-0.0465,0.0041,-0.0019,2.00E-04,161362,2021-08-07 01:50:31:448
-1.4676,0.3807,9.645,-1.4877,0.377,9.6858,0.0201,0.0036,-0.0408,0.0023,-0.0037,0.0027,161862,2021-08-07 01:50:31:948
-1.4784,0.3723,9.6474,-1.4816,0.3803,9.6866,0.0032,-0.008,-0.0392,-0.0026,5.00E-04,0.0021,162363,2021-08-07 01:50:32:449
-1.4545,0.3938,9.6774,-1.4792,0.3823,9.6869,0.0236,8.00E-04,-0.0467,-8.00E-04,-7.00E-04,0.0021,162862,2021-08-07 01:50:32:948
-1.421,0.3771,9.5972,-1.4722,0.381,9.688,-0.011,-0.0028,-0.0274,0.0041,-0.0037,0.0076,163363,2021-08-07 01:50:33:449
-1.4281,0.3926,9.6606,-1.4534,0.3874,9.6906,0.0264,0.0101,-0.0671,-8.00E-04,0.0073,-0.0028,163863,2021-08-07 01:50:33:949
-1.4437,0.3687,9.6127,-1.467,0.3879,9.6885,-0.015,-0.0072,-0.083,-0.002,-0.0086,-0.001,164363,2021-08-07 01:50:34:449
-1.4676,0.3986,9.596,-1.4684,0.3859,9.6884,0.0067,-0.0136,-0.0984,0.0096,-0.0013,-4.00E-04,164863,2021-08-07 01:50:34:949
-1.4868,0.3891,9.5792,-1.4704,0.3845,9.6882,0.0315,0.0118,-0.1221,0.0029,5.00E-04,0.0033,165363,2021-08-07 01:50:35:449
-1.4832,0.3675,9.6426,-1.4761,0.3853,9.6873,-0.0191,0.0061,-0.0817,0.0017,0.0024,-0.0016,165863,2021-08-07 01:50:35:949
-1.4641,0.3735,9.5636,-1.4752,0.3861,9.6874,0.0339,5.00E-04,-0.0531,0.0029,-0.0013,2.00E-04,166362,2021-08-07 01:50:36:448
-1.4617,0.3879,9.5696,-1.4779,0.3894,9.6868,0.0414,-0.0039,-0.0945,0.0035,-7.00E-04,-0.001,166862,2021-08-07 01:50:36:948
-1.4377,0.4106,9.5181,-1.472,0.3924,9.6876,-0.0112,0.0062,-0.094,-0.0112,0.0128,0.0021,167362,2021-08-07 01:50:37:448
-1.4461,0.4034,9.6618,-1.4759,0.3881,9.6872,0.0167,0.0105,-0.0457,0.0059,5.00E-04,-0.0022,167862,2021-08-07 01:50:37:948
-1.4688,0.3711,9.6259,-1.4782,0.3801,9.6872,0.0596,0.0066,-0.1307,-0.0026,-0.0251,-0.0016,168363,2021-08-07 01:50:38:449
-1.4509,0.3651,9.6187,-1.4733,0.379,9.6879,0.0404,0.0245,-0.1016,0.0096,0.0042,0.0015,168863,2021-08-07 01:50:38:949
-1.4449,0.3663,9.5636,-1.4761,0.3732,9.6877,0.0156,-0.0332,-0.1085,0.0059,-0.0074,0.0021,169363,2021-08-07 01:50:39:449
-1.4485,0.3639,9.5445,-1.4774,0.3699,9.6877,0.066,0.0012,-0.1528,-0.0038,5.00E-04,0.0027,169862,2021-08-07 01:50:39:948
-1.4389,0.3508,9.5229,-1.4663,0.3705,9.6893,0.0633,-0.0042,-0.1436,-8.00E-04,-0.0049,-0.0046,170362,2021-08-07 01:50:40:448
-1.4437,0.3412,9.578,-1.4688,0.3716,9.6889,0.0251,-0.004,-0.081,4.00E-04,0.0067,-0.0083,170863,2021-08-07 01:50:40:949
-1.4676,0.31,9.6175,-1.4906,0.3833,9.6851,0.0397,0.0333,-0.1287,-0.0032,0.006,9.00E-04,171363,2021-08-07 01:50:41:449
-1.4557,0.3591,9.5589,-1.4794,0.3785,9.687,0.0189,-0.0122,-0.0779,0.0053,-1.00E-04,0.0057,171862,2021-08-07 01:50:41:948
-1.4198,0.3412,9.5996,-1.4717,0.3676,9.6886,0.0233,-0.0276,-0.0915,-0.0032,-0.0172,-0.0016,172362,2021-08-07 01:50:42:448
-1.4246,0.34,9.5373,-1.4648,0.3655,9.6897,0.0055,8.00E-04,-0.1536,-0.0063,0.0073,0.0021,172862,2021-08-07 01:50:42:948
-1.4521,0.3496,9.5565,-1.4596,0.3604,9.6907,0.0386,-0.0013,-0.1199,0.0047,0.0024,0.0064,173362,2021-08-07 01:50:43:448
-1.4365,0.3352,9.59,-1.4598,0.3589,9.6907,0.0436,0.0051,-0.0768,0.0047,0.0042,0.0027,173862,2021-08-07 01:50:43:948
-1.4413,0.3651,9.5636,-1.4603,0.372,9.6902,0.0166,-0.0092,-0.1301,0.0053,0.0091,-4.00E-04,174363,2021-08-07 01:50:44:449
-1.4329,0.3256,9.5984,-1.4714,0.3671,9.6887,0.0265,-8.00E-04,-0.1322,0.0041,-0.0031,9.00E-04,174863,2021-08-07 01:50:44:949
-1.488,0.3376,9.6331,-1.4549,0.3658,9.6912,0.0758,-7.00E-04,-0.1108,0.0041,-0.0202,0.0039,175363,2021-08-07 01:50:45:449
-1.4186,0.3484,9.584,-1.439,0.3645,9.6936,0.0145,-0.0221,-0.1192,-8.00E-04,0.0036,0.0021,175862,2021-08-07 01:50:45:948
-1.4198,0.3472,9.5924,-1.4411,0.3645,9.6933,0.0297,-0.0257,-0.1632,0.0029,0.0024,9.00E-04,176362,2021-08-07 01:50:46:448
-1.3934,0.3651,9.5852,-1.4349,0.3604,9.6944,0.0391,0.0048,-0.1164,0.0059,0.003,0.0039,176865,2021-08-07 01:50:46:951
-1.4162,0.34,9.5996,-1.4279,0.3582,9.6955,0.0261,0.0105,-0.1079,4.00E-04,0.0036,-0.0028,177362,2021-08-07 01:50:47:448
-1.4234,0.3615,9.6594,-1.4459,0.3593,9.6928,-0.005,-2.00E-04,-0.0777,0.0023,0.0042,-0.0022,177863,2021-08-07 01:50:47:949
-1.4126,0.3472,9.6474,-1.4423,0.357,9.6934,0.0141,-0.0314,-0.0221,-0.002,-1.00E-04,-0.0046,178363,2021-08-07 01:50:48:449
-1.4138,0.3555,9.5768,-1.4449,0.3511,9.6933,0.0096,-0.0147,-0.0901,-8.00E-04,0.0012,0.0015,178863,2021-08-07 01:50:48:949
-1.4198,0.3508,9.5972,-1.4548,0.3468,9.6919,-0.0092,-0.0224,-0.1139,0.0023,0.0012,2.00E-04,179363,2021-08-07 01:50:49:449
-1.4186,0.3531,9.5912,-1.456,0.3455,9.6918,0.0207,-7.00E-04,-0.1258,0.0047,-7.00E-04,0.0021,179863,2021-08-07 01:50:49:949
-1.4246,0.3448,9.5577,-1.4526,0.345,9.6923,0.0197,0.001,-0.1395,-2.00E-04,-1.00E-04,0.0039,180363,2021-08-07 01:50:50:449
-1.397,0.3424,9.6115,-1.461,0.3491,9.6909,0.0137,-0.0391,-0.0914,-0.0038,0.0195,0.007,180863,2021-08-07 01:50:50:949
-1.5419,0.2502,9.566,-1.5112,0.3255,9.684,0.0651,0.06,-0.1168,-0.0081,0.0213,0.0149,181363,2021-08-07 01:50:51:449
-1.5095,0.2801,9.6127,-1.5478,0.3249,9.6783,-0.0072,-0.0053,-0.0703,0.0102,-1.00E-04,-4.00E-04,181864,2021-08-07 01:50:51:950
-1.488,0.3412,9.5816,-1.525,0.3445,9.6812,0.0106,-0.0249,-0.0673,0.0023,-0.0019,9.00E-04,182363,2021-08-07 01:50:52:449
-1.5024,0.3472,9.5768,-1.5257,0.3611,9.6805,0.0329,-0.0391,-0.0965,0.0035,-0.0049,0.0015,182863,2021-08-07 01:50:52:949
-1.4605,0.34,9.5792,-1.5092,0.3662,9.6829,0.0308,1.00E-04,-0.1911,0.0059,-0.0068,0.0015,183363,2021-08-07 01:50:53:449
-1.4162,0.3926,9.5828,-1.4714,0.376,9.6883,0.0325,-0.0181,-0.0744,0.009,-0.0202,0.0033,183863,2021-08-07 01:50:53:949
-1.4461,0.3352,9.6007,-1.4883,0.3697,9.686,0.0386,-0.0237,-0.0697,0.0023,0.0122,-0.0028,184363,2021-08-07 01:50:54:449
-1.4688,0.3603,9.5457,-1.5212,0.3625,9.6812,-0.0159,-0.0429,-0.0445,0.0084,0.0024,-4.00E-04,184862,2021-08-07 01:50:54:948
-1.4928,0.2777,9.8533,-1.5268,0.375,9.6798,0.0209,-0.0722,-0.1784,0.0182,-0.0202,0.0094,185362,2021-08-07 01:50:55:448
-1.8112,0.3041,9.4355,-1.7684,0.4375,9.636,-0.0512,-0.1706,-0.1585,-0.024,0.0195,0.0167,185863,2021-08-07 01:50:55:949
-1.8304,0.4381,9.4691,-1.837,0.441,9.623,0.0042,0.0163,-0.0869,-0.0038,0.0042,-0.0046,186363,2021-08-07 01:50:56:449
-1.8112,0.401,9.5253,-1.8194,0.4383,9.6264,0.0393,-0.0325,-0.1047,0.0011,-0.0043,0.0039,186863,2021-08-07 01:50:56:949
-1.7645,0.4669,9.5361,-1.7981,0.4347,9.6306,0.0827,-0.0193,-0.055,-0.0154,0.0042,2.00E-04,187363,2021-08-07 01:50:57:449
-1.8555,0.407,9.5624,-1.8469,0.4116,9.6224,0.0428,-0.0141,-0.1198,0.0072,0.0207,0.0088,187862,2021-08-07 01:50:57:948
-1.8579,0.3531,9.5217,-1.8792,0.4083,9.6162,0.0046,-0.0695,-0.0574,-0.0026,0.0018,-0.0034,188363,2021-08-07 01:50:58:449
-1.8244,0.4334,9.4918,-1.8327,0.4414,9.6238,0.0179,0.0147,-0.0912,0.0279,-0.0312,0.0039,188863,2021-08-07 01:50:58:949
-1.7454,0.4705,9.4667,-1.7583,0.5076,9.6344,0.0441,-0.0216,-0.0791,0.0121,-0.0117,0.0039,189363,2021-08-07 01:50:59:449
-1.6316,0.5112,9.5361,-1.6642,0.5315,9.6498,0.0601,-0.0287,-0.1029,-0.005,-0.0086,-0.0028,189863,2021-08-07 01:50:59:949
-1.7131,0.4705,9.4475,-1.6994,0.515,9.6445,-0.028,-0.0816,-0.0773,-0.0148,0.0122,0.0112,190362,2021-08-07 01:51:00:448
-1.6328,0.516,9.5289,-1.7005,0.4944,9.6454,-0.0029,-0.0155,-0.1081,0.0084,-0.0056,-0.0046,190863,2021-08-07 01:51:00:949
-1.6293,0.5124,9.5672,-1.7097,0.4903,9.644,-0.0202,-0.0522,-0.0912,-0.0081,-0.0153,-0.0077,191362,2021-08-07 01:51:01:448
-1.7107,0.4334,9.6654,-1.7062,0.4685,9.6457,0.0339,-0.0315,-0.0521,-0.0075,0.0213,0.0027,191862,2021-08-07 01:51:01:948
-1.7119,0.4034,9.59,-1.7164,0.4828,9.6432,0.0237,-0.0243,-0.0436,0.0041,0.0097,0.0051,192363,2021-08-07 01:51:02:449
-1.7166,0.504,9.5912,-1.7113,0.4742,9.6445,0.0521,-0.0409,-0.118,-0.0105,-0.0037,-0.015,192863,2021-08-07 01:51:02:949
-1.6364,0.4573,9.7049,-1.6805,0.4471,9.6512,0.0369,-0.0569,0.0549,-0.0277,-0.0129,-0.0077,193363,2021-08-07 01:51:03:449
-1.5969,0.4298,9.6103,-1.6382,0.4451,9.6586,-7.00E-04,-0.0476,-0.0387,0.0023,-0.0141,0.0033,193863,2021-08-07 01:51:03:949
-1.5574,0.5052,9.6426,-1.6019,0.4757,9.6632,0.0384,-0.0735,-0.0469,0.0023,-0.0208,-0.004,194363,2021-08-07 01:51:04:449
-1.573,0.3388,9.6331,-1.5541,0.4978,9.6699,0.0565,-0.0322,-0.0859,0.0206,0.0048,0.0216,194862,2021-08-07 01:51:04:948
-1.5203,0.2957,9.6355,-1.5096,0.4171,9.6808,0.0599,0.0389,-0.0645,0.0096,-0.0111,0.0057,195363,2021-08-07 01:51:05:449
-1.4688,0.3819,9.5912,-1.4936,0.4305,9.6827,0.0391,-0.0128,-0.0628,0.0078,-0.0049,0.0057,195862,2021-08-07 01:51:05:948
-1.4629,0.4393,9.6415,-1.4734,0.4565,9.6846,0.0356,0.0127,-0.0946,0.0157,0.0012,0.0119,196363,2021-08-07 01:51:06:449
-1.4581,0.431,9.6259,-1.4675,0.4667,9.685,0.0035,-0.0178,-0.0124,-0.0032,-0.0062,0.0021,196863,2021-08-07 01:51:06:949
-1.385,0.4908,9.6055,-1.4769,0.4699,9.6834,-0.0254,-0.118,-0.0994,0.075,-0.0147,0.0045,197363,2021-08-07 01:51:07:449
-1.3994,0.3783,9.7133,-1.4255,0.4375,9.6926,0.0273,0.0545,0.029,0.0084,0.003,-0.0028,197862,2021-08-07 01:51:07:948
-1.3922,0.4202,9.6343,-1.4172,0.4221,9.6945,0.0202,-0.0103,-0.1081,0.009,-0.0111,-0.0071,198362,2021-08-07 01:51:08:448
-1.421,0.3879,9.584,-1.4177,0.4011,9.6953,0.059,-0.0767,-0.1126,-0.0044,-0.008,0.0235,198863,2021-08-07 01:51:08:949
-1.3503,0.4465,9.5529,-1.4014,0.4081,9.6974,0.026,-0.0442,-0.1278,0.0035,0.0042,-0.0065,199363,2021-08-07 01:51:09:449
-1.3348,0.401,9.5433,-1.3884,0.4288,9.6984,-0.0038,-0.017,-0.1467,-0.002,-0.0025,0.0015,199863,2021-08-07 01:51:09:949
-1.3312,0.413,9.5529,-1.3806,0.4186,9.7,0.0099,-0.0404,-0.098,0.0066,-0.0056,9.00E-04,200363,2021-08-07 01:51:10:449
-1.3443,0.3903,9.5936,-1.367,0.4159,9.702,0.0442,-0.0161,-0.1491,-0.0038,5.00E-04,-0.001,200863,2021-08-07 01:51:10:949
-1.3288,0.3986,9.5481,-1.362,0.4094,9.703,0.008,-0.0144,-0.1154,0.0066,0.0012,-0.001,201363,2021-08-07 01:51:11:449
-1.4126,0.3986,9.6031,-1.4031,0.4204,9.6966,0.0145,-0.0074,-0.1426,-0.0044,0.0341,0.0064,201862,2021-08-07 01:51:11:948
-1.3922,0.4298,9.5624,-1.4248,0.4189,9.6936,0.0242,-0.0131,-0.1323,0.0023,-0.0025,-0.0028,202362,2021-08-07 01:51:12:448
-1.4186,0.4082,9.5481,-1.4177,0.4183,9.6946,0.0314,-0.0089,-0.119,0.0011,-0.0123,9.00E-04,202863,2021-08-07 01:51:12:949
-1.3683,0.4322,9.6235,-1.4092,0.4216,9.6957,0.0504,0.0105,-0.156,0.0066,0.003,0.0064,203362,2021-08-07 01:51:13:448
-1.3719,0.4094,9.6091,-1.4085,0.4192,9.6959,0.0438,9.00E-04,-0.1215,0.0047,-0.0043,0.0015,203862,2021-08-07 01:51:13:948
-1.3862,0.3986,9.6403,-1.4012,0.421,9.6969,0.0377,-0.0033,-0.1237,-2.00E-04,0.0012,-4.00E-04,204363,2021-08-07 01:51:14:449
-1.3755,0.4381,9.5864,-1.3936,0.4212,9.698,0.0468,0.0217,-0.1355,0.0023,0.0048,0.0033,204863,2021-08-07 01:51:14:949
-1.3994,0.4094,9.5864,-1.4199,0.4287,9.6938,0.0181,-0.0074,-0.1242,-0.0026,-0.0086,-0.0077,205362,2021-08-07 01:51:15:448
-1.3982,0.431,9.505,-1.4234,0.4299,9.6933,0.0132,0.001,-0.138,0.0127,-0.0031,2.00E-04,205862,2021-08-07 01:51:15:948
-1.4018,0.425,9.566,-1.4272,0.4283,9.6928,0.0458,-0.0081,-0.1088,0.0041,-0.0025,-0.0016,206363,2021-08-07 01:51:16:449
-1.4042,0.4429,9.6175,-1.4228,0.43,9.6933,0.0402,0.0153,-0.0627,0.0053,0.0042,0.0039,206863,2021-08-07 01:51:16:949
-1.4042,0.4142,9.6127,-1.4189,0.4308,9.6939,0.0279,-0.007,-0.1482,-2.00E-04,-0.0031,0.0045,207363,2021-08-07 01:51:17:449
-1.4042,0.4525,9.663,-1.416,0.4299,9.6944,0.0321,-0.0265,-0.035,0.0053,5.00E-04,-0.0028,207863,2021-08-07 01:51:17:949
-1.3683,0.4453,9.6319,-1.407,0.4303,9.6956,0.0423,0.027,-0.0662,4.00E-04,-0.0019,0.0039,208362,2021-08-07 01:51:18:448
-1.3803,0.4106,9.5529,-1.4009,0.4321,9.6965,0.0254,1.00E-04,-0.1017,0.0053,0.003,-4.00E-04,208862,2021-08-07 01:51:18:948
-1.3874,0.4274,9.6007,-1.4215,0.4354,9.6933,0.0053,-0.008,-0.0974,4.00E-04,0.0012,-0.0034,209363,2021-08-07 01:51:19:449
-1.4425,0.4238,9.6271,-1.4184,0.4356,9.6938,0.0405,0.0122,-0.1469,4.00E-04,-0.0043,9.00E-04,209863,2021-08-07 01:51:19:949
-1.3743,0.4513,9.5636,-1.4138,0.4366,9.6944,0.0335,-0.0056,-0.1427,0.0053,-7.00E-04,0.0015,210363,2021-08-07 01:51:20:449
-1.3874,0.4118,9.5792,-1.4107,0.436,9.6949,0.0687,-0.0218,-0.1492,0.0035,-1.00E-04,0.0039,210862,2021-08-07 01:51:20:948
-1.3623,0.4453,9.5481,-1.4021,0.4358,9.6961,0.0386,-0.0168,-0.1648,0.009,0.0036,0.0021,211362,2021-08-07 01:51:21:448
-1.3455,0.4286,9.59,-1.3898,0.436,9.6979,0.0586,0.0045,-0.1163,0.0017,0.0018,0.0015,211862,2021-08-07 01:51:21:948
-1.3599,0.4381,9.6079,-1.395,0.4356,9.6971,0.0255,-0.0274,-0.0904,0.0066,0.006,-0.0016,212363,2021-08-07 01:51:22:449
-1.3934,0.4262,9.5313,-1.41,0.4419,9.6947,0.0154,0.001,-0.1322,0.0066,0.0091,-0.001,212863,2021-08-07 01:51:22:949
-1.3982,0.425,9.5972,-1.4159,0.4365,9.6941,0.0476,0.0112,-0.1376,0.0029,-1.00E-04,2.00E-04,213363,2021-08-07 01:51:23:449
-1.4641,0.4334,9.5086,-1.4104,0.4273,9.6953,0.0337,-0.0395,-0.0993,0.0066,0.006,0.0021,213863,2021-08-07 01:51:23:949
-1.3647,0.4597,9.5924,-1.4025,0.4233,9.6966,0.0043,-0.0402,-0.0923,0.0041,-7.00E-04,0.0039,214363,2021-08-07 01:51:24:449
-1.3467,0.4214,9.5804,-1.3891,0.4314,9.6982,0.0387,-0.022,-0.0735,0.0059,-0.0086,0.0027,214863,2021-08-07 01:51:24:949
-1.324,0.4322,9.5648,-1.3839,0.4288,9.699,0.03,-0.0158,-0.0911,0.0059,0.0042,0.0015,215363,2021-08-07 01:51:25:449
-1.3264,0.4202,9.6043,-1.3711,0.4288,9.7008,0.034,-0.011,-0.1612,0.0029,0.0073,9.00E-04,215863,2021-08-07 01:51:25:949
-1.3599,0.4094,9.6115,-1.3855,0.4366,9.6985,0.0113,-0.0212,-0.0881,0.0035,0.0079,9.00E-04,216363,2021-08-07 01:51:26:449
-1.3563,0.4705,9.6774,-1.3977,0.4306,9.697,-0.0292,-0.0308,0.0438,-0.002,0.0018,2.00E-04,216862,2021-08-07 01:51:26:948
-1.3587,0.4262,9.6115,-1.3982,0.432,9.6969,0.0251,-0.0046,-0.1093,0.0041,-0.0019,-0.001,217362,2021-08-07 01:51:27:448
-1.3707,0.4381,9.6666,-1.3883,0.4311,9.6983,0.0296,0.0047,-0.015,-0.0038,0.0012,0.0057,217862,2021-08-07 01:51:27:948
-1.3719,0.4429,9.6223,-1.3842,0.4389,9.6985,0.0123,5.00E-04,-0.1624,0.0084,-0.0135,0.007,218364,2021-08-07 01:51:28:450
-1.3168,0.4609,9.5816,-1.3554,0.4509,9.7021,0.0266,-0.0031,-0.1588,4.00E-04,-1.00E-04,2.00E-04,218862,2021-08-07 01:51:28:948
-1.3264,0.4322,9.5864,-1.3539,0.4498,9.7023,0.0371,-0.008,-0.1578,0.0011,0.003,9.00E-04,219362,2021-08-07 01:51:29:448
-1.3958,0.4322,9.645,-1.3577,0.4579,9.7014,0.0133,-0.015,-0.1043,-0.0112,0.0299,0.0076,219863,2021-08-07 01:51:29:949
-1.3611,0.4262,9.5529,-1.385,0.4524,9.6978,0.0024,-0.0394,-0.1413,0.0035,0.0012,-4.00E-04,220363,2021-08-07 01:51:30:449
-1.3264,0.4477,9.584,-1.3721,0.4421,9.7001,0.011,-0.0147,-0.1042,-0.0038,-0.0049,0.0021,220863,2021-08-07 01:51:30:949
-1.3132,0.4369,9.5732,-1.3562,0.4436,9.7023,0.0034,-0.0294,-0.0752,-0.002,0.0195,0.0112,221363,2021-08-07 01:51:31:449
-1.3012,0.4334,9.5792,-1.3475,0.4446,9.7034,0.0463,0.0126,-0.1159,0.0011,-0.0025,-4.00E-04,221863,2021-08-07 01:51:31:949
-1.2929,0.4513,9.6079,-1.3422,0.4472,9.7041,0.023,-0.0114,-0.089,0.0066,0.0012,0.0057,222363,2021-08-07 01:51:32:449
-1.3096,0.4513,9.5265,-1.3348,0.4528,9.7048,0.0191,-0.0111,-0.1711,0.0078,-1.00E-04,0.0033,222863,2021-08-07 01:51:32:949
-1.3647,0.4262,9.5565,-1.3648,0.4479,9.7009,0.0228,-0.005,-0.1325,0.0023,0.0109,-0.001,223363,2021-08-07 01:51:33:449
-1.3336,0.4453,9.5852,-1.3709,0.4416,9.7003,0.0062,0.0061,-0.1163,0.0041,0.0012,0.0045,223863,2021-08-07 01:51:33:949
-1.3168,0.4477,9.6019,-1.3675,0.4552,9.7002,0.0136,-0.0278,-0.0767,0.0047,0.0195,0.0155,224363,2021-08-07 01:51:34:449
-1.3515,0.4729,9.5816,-1.3624,0.4802,9.6997,0.0048,-0.0062,-0.0917,0.0035,-1.00E-04,0.0027,224863,2021-08-07 01:51:34:949
-1.2953,0.4788,9.5756,-1.359,0.4733,9.7005,-9.00E-04,-0.0232,-0.1297,0.0084,-0.0049,-4.00E-04,225363,2021-08-07 01:51:35:449
-1.3001,0.4741,9.5696,-1.3469,0.4732,9.7022,0.0301,-0.0124,-0.0452,0.0151,0.0018,-4.00E-04,225862,2021-08-07 01:51:35:948
-1.3288,0.4429,9.5589,-1.3518,0.461,9.7021,0.0481,-0.0252,-0.1492,-0.0044,0.0067,2.00E-04,226362,2021-08-07 01:51:36:448
-1.3635,0.4154,9.59,-1.3966,0.4429,9.6966,0.0032,-0.0264,-0.1629,0.0029,0.0048,-0.004,226862,2021-08-07 01:51:36:948
-1.3408,0.419,9.5948,-1.3763,0.4449,9.6994,0.0331,0.004,-0.0113,0.0066,-0.0117,0.0015,227363,2021-08-07 01:51:37:449
-1.3527,0.395,9.6678,-1.355,0.4885,9.7003,0.0178,0.073,-0.0505,0.0035,-0.0043,0.0027,227863,2021-08-07 01:51:37:949
-1.3192,0.425,9.6235,-1.3455,0.4917,9.7015,-0.024,-0.0512,-0.0875,-0.002,-0.0074,-0.0071,228363,2021-08-07 01:51:38:449
-1.2929,0.4944,9.5624,-1.3291,0.502,9.7032,0.0051,-0.0399,-0.124,0.0023,-0.0031,0.0039,228862,2021-08-07 01:51:38:948
-1.3252,0.4836,9.6043,-1.3291,0.495,9.7035,0.0375,-0.0197,-0.1088,0.0029,0.0018,-0.001,229363,2021-08-07 01:51:39:449
-1.3815,0.4585,9.6379,-1.3424,0.4945,9.7017,0.0339,-0.018,-0.1513,-0.0014,0.0048,-4.00E-04,229863,2021-08-07 01:51:39:949
-1.3575,0.4669,9.572,-1.3702,0.4813,9.6985,0.0211,0.0071,-0.1241,0.0059,5.00E-04,0.0015,230363,2021-08-07 01:51:40:449
-1.318,0.4741,9.6091,-1.3734,0.4925,9.6975,-9.00E-04,-0.0209,-0.1195,0.0029,-0.0098,0.0033,230863,2021-08-07 01:51:40:949
-1.3491,0.4848,9.5433,-1.3715,0.5022,9.6973,-0.0135,-0.0222,-0.1013,-0.0014,0.0012,0.0015,231362,2021-08-07 01:51:41:448
-1.3276,0.5171,9.5816,-1.3441,0.5258,9.6999,0.0021,-0.0386,-0.1015,0.0053,5.00E-04,2.00E-04,231862,2021-08-07 01:51:41:948
-1.3084,0.5315,9.6019,-1.3519,0.5218,9.699,-9.00E-04,0.0061,-0.0911,0.0023,0.0079,0.0045,232363,2021-08-07 01:51:42:449
-1.2474,0.7482,9.4068,-1.3951,0.5198,9.693,0.0651,-3.00E-04,-0.1521,-0.0283,0.0458,-0.0095,232863,2021-08-07 01:51:42:949
-1.5778,0.4262,9.5265,-1.5841,0.4662,9.6666,0.0039,-0.0257,-0.0874,-0.002,0.0219,0.0064,233363,2021-08-07 01:51:43:449
-1.6556,0.4657,9.566,-1.636,0.4551,9.6585,0.0463,-0.0302,-0.1032,0.0047,-0.0233,-0.0187,233863,2021-08-07 01:51:43:949
-1.4605,0.4824,9.5349,-1.5303,0.5106,9.673,0.0172,-0.0533,-0.0472,0.0145,-0.0178,-0.001,234362,2021-08-07 01:51:44:448
-1.409,0.5902,9.5373,-1.4637,0.55,9.6812,0.0164,-0.0592,-0.0888,0.0157,-0.0037,-0.0028,234862,2021-08-07 01:51:44:948
-1.4485,0.5602,9.596,-1.4648,0.6005,9.678,0.0642,-0.0031,-0.1383,-0.002,-1.00E-04,-0.0046,235362,2021-08-07 01:51:45:448
-1.5107,0.583,9.6139,-1.4559,0.5982,9.6795,0.0804,-0.0523,-0.1566,0.0163,-0.019,0.0064,235863,2021-08-07 01:51:45:949
-1.4473,0.5782,9.5696,-1.393,0.6221,9.6873,0.0355,-0.0104,-0.0961,-0.0057,-0.041,-0.0248,236363,2021-08-07 01:51:46:449
-1.3372,0.565,9.5996,-1.372,0.5718,9.6933,0.005,-0.063,-0.1273,-0.0124,0.0097,0.0051,236862,2021-08-07 01:51:46:948
-1.3384,0.5148,9.5385,-1.3558,0.5243,9.6983,0.0868,0.0191,-0.1443,0.0328,-0.0049,0.0259,237362,2021-08-07 01:51:47:448
-1.3539,0.4884,9.6355,-1.3838,0.5235,9.6944,-0.0228,-0.0279,-0.0721,0.0127,-7.00E-04,0.0051,237863,2021-08-07 01:51:47:949
-1.4198,0.4154,9.584,-1.3819,0.5369,9.6939,0.0447,-0.0258,-0.0932,-0.013,0.0128,0.0125,238363,2021-08-07 01:51:48:449
-1.3743,0.5243,9.5325,-1.3652,0.5099,9.6978,0.0663,-0.0143,-0.2072,0.0041,-0.0043,2.00E-04,238863,2021-08-07 01:51:48:949
-1.3216,0.5267,9.5828,-1.3647,0.5084,9.6979,0.0659,-0.0475,-0.1379,0.0059,0.0079,9.00E-04,239362,2021-08-07 01:51:49:448
-1.3862,0.4274,9.5912,-1.3839,0.494,9.6959,0.0814,-0.0236,-0.0928,0.0023,0.0073,-0.0028,239863,2021-08-07 01:51:49:949
-1.3635,0.4752,9.5924,-1.3734,0.5082,9.6967,0.0051,-0.0185,-0.0888,-0.0063,0.0024,-0.004,240363,2021-08-07 01:51:50:449
-1.3958,0.5028,9.5816,-1.3747,0.5097,9.6964,0.0291,-0.0188,-0.1292,0.0017,0.0079,0.0021,240863,2021-08-07 01:51:50:949
-1.3862,0.4776,9.5636,-1.3722,0.5172,9.6964,0.0182,-0.0299,-0.1866,-0.005,0.0238,0.0088,241363,2021-08-07 01:51:51:449
-1.3396,0.498,9.6091,-1.377,0.5136,9.6959,0.035,0.0203,-0.0964,4.00E-04,5.00E-04,9.00E-04,241863,2021-08-07 01:51:51:949
-1.4066,0.48,9.5708,-1.3724,0.5075,9.6969,0.0556,-0.0119,-0.1165,0.0047,-0.0208,-0.0071,242363,2021-08-07 01:51:52:449
-1.312,0.4585,9.5553,-1.3768,0.4947,9.6969,-0.0083,-0.0458,-0.0674,0.0072,0.0097,2.00E-04,242862,2021-08-07 01:51:52:948
-1.3874,0.4417,9.5385,-1.3953,0.4782,9.6951,0.0283,-0.0054,-0.1291,-0.0014,0.0012,-0.0022,243363,2021-08-07 01:51:53:449
-1.3491,0.4705,9.5553,-1.3923,0.4701,9.6959,1.00E-04,-0.0164,-0.1251,0.0066,-0.0196,-0.0016,243863,2021-08-07 01:51:53:949
-1.3336,0.4944,9.5804,-1.3885,0.503,9.6948,0.025,-2.00E-04,-0.0366,0.0218,0.0091,0.007,244362,2021-08-07 01:51:54:448
-1.3862,0.4764,9.5888,-1.391,0.526,9.6932,0.0131,-0.0388,-0.1069,0.0011,0.0042,0.0033,244863,2021-08-07 01:51:54:949
-1.3755,0.4824,9.6067,-1.395,0.5337,9.6922,0.0112,-0.0058,-0.1214,0.0078,0.0073,0.0033,245363,2021-08-07 01:51:55:449
-1.3288,0.5124,9.5229,-1.3854,0.536,9.6935,0.0231,-0.0165,-0.1993,0.0023,-1.00E-04,-0.0059,245862,2021-08-07 01:51:55:948
-1.3515,0.4657,9.578,-1.394,0.5235,9.6929,0.0246,-0.0279,-0.1341,-0.0026,0.0024,-0.001,246363,2021-08-07 01:51:56:449
-1.403,0.4561,9.5672,-1.4127,0.5044,9.6912,0.0588,-0.0292,-0.1408,-8.00E-04,0.0012,2.00E-04,246863,2021-08-07 01:51:56:949
-1.3443,0.5195,9.5648,-1.3653,0.5381,9.6962,0.0234,-0.0317,-0.1565,0.0096,-0.0025,-4.00E-04,247363,2021-08-07 01:51:57:449
-1.3671,0.5543,9.6151,-1.385,0.5399,9.6933,0.0395,-0.0203,-0.0531,-0.0026,0.0018,0.0064,247863,2021-08-07 01:51:57:949
-1.397,0.4645,9.6774,-1.3754,0.5063,9.6965,0.0322,0.006,-0.0886,-0.0093,0.0042,-0.0077,248362,2021-08-07 01:51:58:448
-1.336,0.516,9.5756,-1.362,0.5004,9.6987,0.0201,-0.0036,-0.1051,-0.0057,0.006,0.0057,248863,2021-08-07 01:51:58:949
-1.3719,0.4609,9.5409,-1.3865,0.4802,9.6963,0.0554,-0.005,-0.1518,0.0011,0.0018,2.00E-04,249363,2021-08-07 01:51:59:449
-1.4353,0.3855,9.6007,-1.4054,0.4565,9.6947,0.0502,0.0223,-0.1346,-0.0191,0.0109,-0.0022,249863,2021-08-07 01:51:59:949
-1.3815,0.4585,9.5804,-1.3824,0.4905,9.6963,0.0308,0.0075,-0.1291,0.0072,-0.0068,0.0015,250363,2021-08-07 01:52:00:449
-1.3431,0.5351,9.5385,-1.4,0.5232,9.6921,-0.0197,-0.0779,-0.1273,0.0029,0.0207,0.0259,250862,2021-08-07 01:52:00:948
-1.2833,0.6105,9.5241,-1.3917,0.517,9.6936,-0.0676,-0.1759,-0.0797,-0.016,0.0268,0.0057,251362,2021-08-07 01:52:01:448
-1.33,0.4752,9.6055,-1.3333,0.5458,9.7002,0.0285,-0.0035,-0.1127,-0.0044,-0.0068,0.0094,251863,2021-08-07 01:52:01:949
-1.2929,0.5435,9.5888,-1.2965,0.5745,9.7036,0.0204,-0.0466,-0.1316,0.0096,0.0079,0.0051,252363,2021-08-07 01:52:02:449
-1.3312,0.4956,9.5708,-1.3099,0.5768,9.7016,0.0207,-0.007,-0.1452,-0.0136,0.0091,-0.004,252862,2021-08-07 01:52:02:948
-1.3024,0.5459,9.5876,-1.3144,0.5569,9.7022,0.0311,-0.0218,-0.0464,0.0011,-0.0037,9.00E-04,253363,2021-08-07 01:52:03:449
-1.2893,0.5363,9.572,-1.3061,0.5595,9.7032,0.0193,-0.0412,-0.1551,0.0023,-0.0062,-0.0022,253863,2021-08-07 01:52:03:949
-1.2845,0.5291,9.5517,-1.3137,0.5655,9.7018,0.0483,0.0247,-0.1262,0.0066,0.0042,0.0076,254362,2021-08-07 01:52:04:448
-1.2881,0.5674,9.5122,-1.3139,0.5625,9.7019,0.0306,-0.0106,-0.1587,0.0011,-7.00E-04,0.0039,254862,2021-08-07 01:52:04:948
-1.2905,0.5531,9.5696,-1.3225,0.562,9.7008,0.0153,-0.0102,-0.112,0.009,-0.0056,0.0015,255363,2021-08-07 01:52:05:449
-1.2965,0.5519,9.596,-1.3219,0.5591,9.701,-0.0044,-0.012,-0.0668,-0.0112,0.0103,-0.0016,255864,2021-08-07 01:52:05:950
-1.3072,0.5471,9.5756,-1.3243,0.5568,9.7009,0.0134,-0.0121,-0.142,0.0029,0.0012,-0.001,256363,2021-08-07 01:52:06:449
-1.2653,0.5567,9.5804,-1.3179,0.5572,9.7017,0.0166,-0.0317,-0.1273,0.0017,0.0036,2.00E-04,256862,2021-08-07 01:52:06:948
-1.2821,0.5375,9.6247,-1.3196,0.5572,9.7015,0.0196,-0.0233,-0.1582,-0.0032,0.014,0.0051,257362,2021-08-07 01:52:07:448
-1.3048,0.577,9.6379,-1.3169,0.5606,9.7016,0.0348,0.0104,-0.0446,-2.00E-04,-1.00E-04,0.0057,257863,2021-08-07 01:52:07:949
-1.3372,0.5507,9.663,-1.3099,0.563,9.7025,0.059,0.026,-0.0682,0.0035,0.0067,0.0106,258363,2021-08-07 01:52:08:449
-1.2977,0.5507,9.5684,-1.3064,0.5665,9.7027,0.0183,-0.0099,-0.163,-0.002,0.0183,0.0021,258863,2021-08-07 01:52:08:949
-1.3096,0.565,9.5325,-1.3161,0.5602,9.7018,0.0041,-0.0096,-0.1405,0.0029,-1.00E-04,-0.0016,259363,2021-08-07 01:52:09:449
-1.3683,0.5255,9.584,-1.319,0.5528,9.7018,0.0561,-0.0045,-0.0999,0.0066,-0.0098,-0.0034,259862,2021-08-07 01:52:09:948
-1.2689,0.5351,9.5469,-1.3119,0.5537,9.7027,0.037,-0.009,-0.1451,0.0053,-0.0086,9.00E-04,260362,2021-08-07 01:52:10:448
-1.2929,0.5507,9.6367,-1.3089,0.5599,9.7028,0.0076,-0.0105,-0.0805,0.0023,0.0048,0.0021,260863,2021-08-07 01:52:10:949
-1.2641,0.5578,9.6223,-1.3147,0.5595,9.702,-0.014,-0.0028,-0.1312,0.0114,-0.0025,-0.0022,261363,2021-08-07 01:52:11:449
-1.2833,0.5674,9.6307,-1.3076,0.5646,9.7027,0.0375,0.0136,-0.0852,0.0157,-0.0104,0.0033,261863,2021-08-07 01:52:11:949
-1.2773,0.5435,9.6403,-1.3059,0.5669,9.7028,0.019,-0.003,-0.0721,4.00E-04,-0.0037,-0.0028,262363,2021-08-07 01:52:12:449
-1.306,0.5363,9.6833,-1.3216,0.5585,9.7011,0.0071,-0.0114,-0.0357,-0.0038,-0.0086,-0.004,262865,2021-08-07 01:52:12:951
-1.3108,0.5459,9.657,-1.3208,0.557,9.7013,0.0387,0.0057,-0.0611,0.0145,-0.0123,9.00E-04,263363,2021-08-07 01:52:13:449
-1.2785,0.5662,9.6151,-1.3053,0.5627,9.7031,0.0208,-0.0144,-0.0449,0.0041,-0.0025,0.0039,263863,2021-08-07 01:52:13:949
-1.2869,0.5698,9.6857,-1.3121,0.5648,9.7021,0.0156,0.0111,-0.0343,-0.0014,-0.0086,-0.0022,264363,2021-08-07 01:52:14:449
-1.306,0.5578,9.5924,-1.3089,0.5672,9.7023,0.0184,-0.0165,-0.086,0.0121,-0.0098,0.0033,264862,2021-08-07 01:52:14:948
-1.2785,0.5567,9.6271,-1.3106,0.5695,9.702,0.0033,3.00E-04,-0.0474,0.0017,-0.0062,-4.00E-04,265363,2021-08-07 01:52:15:449
-1.2761,0.559,9.6127,-1.3131,0.5611,9.7021,0.0094,-0.0296,-0.0463,-0.0026,0.0018,-0.004,265863,2021-08-07 01:52:15:949
-1.2318,0.3543,9.7348,-1.35,0.5395,9.6983,0.0272,0.1045,-0.1789,0.0267,0.0262,0.0418,266363,2021-08-07 01:52:16:449
-1.5143,0.4741,9.6043,-1.5322,0.5234,9.6721,-0.0815,-0.0374,-0.0653,-0.0142,0.0696,0.0473,266863,2021-08-07 01:52:16:949
-1.6089,0.3723,9.6283,-1.5932,0.4907,9.6639,0.025,0.0205,-0.0787,-0.0038,-1.00E-04,0.0039,267363,2021-08-07 01:52:17:449
-1.5897,0.4549,9.6774,-1.5923,0.4973,9.6637,-0.019,-0.0089,-0.0235,0.0194,-0.0043,0.0076,267862,2021-08-07 01:52:17:948
-1.5502,0.5207,9.584,-1.5978,0.5061,9.6624,-0.0028,0.005,-0.0377,0.009,-1.00E-04,0.0088,268363,2021-08-07 01:52:18:449
-1.5203,0.3891,9.742,-1.4858,0.5665,9.6769,0.0469,0.0224,-0.1887,0.0243,-0.0563,-0.0156,268863,2021-08-07 01:52:18:949
-1.4102,0.4046,9.5373,-1.417,0.5376,9.6888,0.0428,0.0442,-0.1743,-0.0087,0.0238,2.00E-04,269362,2021-08-07 01:52:19:448
-1.4234,0.4166,9.5313,-1.4366,0.4903,9.6885,0.0348,-0.0258,-0.144,0.0182,-0.0019,9.00E-04,269863,2021-08-07 01:52:19:949
-1.4042,0.4741,9.4751,-1.3877,0.5503,9.6924,0.0505,-0.02,-0.1335,-2.00E-04,-1.00E-04,0.0106,270363,2021-08-07 01:52:20:449
-1.3072,0.4872,9.5529,-1.326,0.552,9.7009,0.0679,-0.0217,-0.1337,-0.0044,0.0042,0.0064,270863,2021-08-07 01:52:20:949
-1.2809,0.5231,9.5744,-1.3185,0.5491,9.7021,0.0244,-0.0223,-0.1049,0.0041,0.0012,2.00E-04,271363,2021-08-07 01:52:21:449
-1.318,0.516,9.6343,-1.3195,0.5484,9.702,0.0339,0.0023,-0.1264,0.0035,0.0036,9.00E-04,271862,2021-08-07 01:52:21:948
-1.3048,0.5399,9.6822,-1.3149,0.5491,9.7026,0.0185,0.0027,-0.0575,4.00E-04,-7.00E-04,-4.00E-04,272362,2021-08-07 01:52:22:448
-1.2905,0.5507,9.6091,-1.3149,0.5424,9.703,0.0376,-0.0145,-0.034,0.0053,0.0097,-0.001,272863,2021-08-07 01:52:22:949
-1.3012,0.5016,9.6307,-1.3168,0.5395,9.7029,0.0263,-0.0236,-0.0889,-0.005,-0.0025,-0.0059,273363,2021-08-07 01:52:23:449
-1.2809,0.5183,9.657,-1.3097,0.5383,9.7039,0.0288,-0.0199,-0.0469,0.009,-0.0062,2.00E-04,273863,2021-08-07 01:52:23:949
-1.3216,0.5495,9.6462,-1.3081,0.5468,9.7036,-0.0135,0.0027,-0.0574,-2.00E-04,0.0244,0.007,274363,2021-08-07 01:52:24:449
-1.2929,0.5231,9.6391,-1.3094,0.5533,9.7031,0.0165,-0.0302,-0.064,4.00E-04,0.0024,2.00E-04,274863,2021-08-07 01:52:24:949
-1.2641,0.5483,9.6415,-1.3113,0.5547,9.7027,0.0472,-0.0065,-0.0613,-0.0014,-0.0013,2.00E-04,275362,2021-08-07 01:52:25:448
-1.2845,0.5447,9.584,-1.3094,0.5553,9.703,0.0249,-0.0106,-0.119,-0.002,-0.0025,0.0015,275862,2021-08-07 01:52:25:948
-1.324,0.5471,9.5708,-1.3123,0.552,9.7028,-0.0117,-0.005,-0.1319,4.00E-04,0.0024,0.0033,276362,2021-08-07 01:52:26:448
-1.3408,0.5219,9.6019,-1.3176,0.5472,9.7023,-0.0231,-0.0253,-0.1004,0.0011,-0.0025,-4.00E-04,276862,2021-08-07 01:52:26:948
-1.2809,0.5279,9.6151,-1.3161,0.542,9.7028,0.0352,-0.0141,-0.0877,0.0017,-0.0031,0.0027,277363,2021-08-07 01:52:27:449
-1.3096,0.5555,9.6857,-1.3152,0.5444,9.7028,0.0055,0.0111,-0.0171,0.0096,-0.0025,0.0015,277863,2021-08-07 01:52:27:949
-1.2594,0.5626,9.6259,-1.316,0.5484,9.7025,0.0567,0.0143,-0.0766,-2.00E-04,0.0042,0.0027,278363,2021-08-07 01:52:28:449
-1.2845,0.5662,9.6295,-1.3151,0.5567,9.7021,0.0306,0.0095,-0.0726,4.00E-04,-0.0031,-0.0016,278863,2021-08-07 01:52:28:949
-1.2761,0.565,9.5816,-1.3192,0.5573,9.7015,0.0431,0.0078,-0.1199,0.0041,-0.0086,0.0033,279362,2021-08-07 01:52:29:448
-1.2989,0.5303,9.5146,-1.315,0.5604,9.7019,0.0161,-0.0301,-0.1874,-0.0093,0.0256,0.0039,279863,2021-08-07 01:52:29:949
-1.3036,0.5411,9.5493,-1.3303,0.5546,9.7002,0.0266,-0.0135,-0.1509,0.0017,5.00E-04,-0.001,280363,2021-08-07 01:52:30:449
-1.3036,0.565,9.5589,-1.3309,0.553,9.7002,0.0273,0.012,-0.1413,0.0059,-0.0019,-0.0022,280863,2021-08-07 01:52:30:949
-1.2929,0.5686,9.651,-1.3244,0.5616,9.7006,0.0315,0.007,-0.0495,0.0127,5.00E-04,0.0033,281363,2021-08-07 01:52:31:449
-1.2989,0.5375,9.5672,-1.3219,0.5606,9.701,0.0231,-0.0231,-0.1337,0.0078,-0.0013,0.0021,281863,2021-08-07 01:52:31:949
-1.3048,0.5495,9.5936,-1.3202,0.5616,9.7011,0.0154,-0.0121,-0.1076,0.0059,0.0073,0.0039,282362,2021-08-07 01:52:32:448
-1.2797,0.577,9.5624,-1.3174,0.5644,9.7014,0.0377,0.0126,-0.1389,0.0023,0.0012,0.0039,282862,2021-08-07 01:52:32:948
-1.2845,0.5734,9.5912,-1.3174,0.5649,9.7013,0.0329,0.0085,-0.1102,0.0035,0.0091,-0.0028,283362,2021-08-07 01:52:33:448
-1.3072,0.5519,9.6187,-1.3167,0.5658,9.7014,0.0095,-0.014,-0.0827,0.0084,0.0042,-0.004,283863,2021-08-07 01:52:33:949
-1.2857,0.5519,9.5457,-1.3184,0.5617,9.7014,0.0327,-0.0098,-0.1557,0.0041,-0.0092,-0.0022,284363,2021-08-07 01:52:34:449
-1.2629,0.5782,9.5481,-1.3181,0.5612,9.7015,0.0551,0.017,-0.1534,-0.0014,0.0012,0.0051,284863,2021-08-07 01:52:34:949
-1.2953,0.5279,9.584,-1.3107,0.5648,9.7022,0.0154,-0.0369,-0.1183,0.0078,0.0036,2.00E-04,285363,2021-08-07 01:52:35:449
-1.3216,0.5267,9.6019,-1.3214,0.562,9.701,-2.00E-04,-0.0353,-0.099,0.0053,-0.0025,0.0033,285863,2021-08-07 01:52:35:949
-1.2725,0.5662,9.6415,-1.317,0.5632,9.7015,0.0445,0.003,-0.06,0.0121,-7.00E-04,0.0033,286363,2021-08-07 01:52:36:449
-1.3132,0.5531,9.5816,-1.3024,0.5728,9.7029,-0.0108,-0.0197,-0.1213,0.0023,0.0067,-4.00E-04,286862,2021-08-07 01:52:36:948
-1.3144,0.5303,9.5636,-1.316,0.5605,9.7018,0.0015,-0.0301,-0.1381,-0.0026,0.0048,2.00E-04,287363,2021-08-07 01:52:37:449
-1.2905,0.5471,9.7229,-1.3132,0.5541,9.7025,0.0227,-0.007,0.0203,0.0139,-0.0056,0.0027,287863,2021-08-07 01:52:37:949
-1.2582,0.5507,9.6498,-1.2979,0.5576,9.7044,0.0398,-0.0069,-0.0545,0.0053,0.0036,2.00E-04,288363,2021-08-07 01:52:38:449
-1.2857,0.5351,9.5636,-1.3045,0.5569,9.7035,0.0188,-0.0218,-0.1399,-0.0014,0.0042,0.0027,288863,2021-08-07 01:52:38:949
-1.2713,0.565,9.5828,-1.3078,0.5581,9.703,0.0365,0.0069,-0.1202,-8.00E-04,5.00E-04,-0.0028,289363,2021-08-07 01:52:39:449
-1.3001,0.5387,9.5553,-1.3098,0.5579,9.7028,0.0098,-0.0192,-0.1475,0.0047,-0.0025,-0.001,289863,2021-08-07 01:52:39:949
-1.2881,0.5291,9.5768,-1.3196,0.5527,9.7017,0.0315,-0.0235,-0.1249,-0.0099,0.0048,-0.004,290366,2021-08-07 01:52:40:452
-1.3108,0.5399,9.5469,-1.3211,0.5551,9.7014,0.0103,-0.0152,-0.1545,0.0011,0.0042,9.00E-04,290862,2021-08-07 01:52:40:948
-1.2677,0.5411,9.5828,-1.3181,0.5538,9.7019,0.0504,-0.0127,-0.1191,0.0017,0.0024,9.00E-04,291363,2021-08-07 01:52:41:449
-1.2725,0.5638,9.5828,-1.3124,0.5564,9.7025,0.0399,0.0074,-0.1197,0.0053,0.0146,0.0094,291863,2021-08-07 01:52:41:949
-1.2785,0.5531,9.56,-1.3092,0.5584,9.7028,0.0307,-0.0054,-0.1428,0.0023,0.0012,0.0027,292363,2021-08-07 01:52:42:449
-1.2725,0.559,9.5577,-1.3123,0.5589,9.7024,0.0398,2.00E-04,-0.1447,0.0066,0.0012,0.0033,292862,2021-08-07 01:52:42:948
-1.2929,0.5722,9.6558,-1.3113,0.5612,9.7024,0.0184,0.011,-0.0466,0.0035,0.0079,0.0033,293363,2021-08-07 01:52:43:449
-1.2929,0.559,9.5816,-1.3154,0.5621,9.7018,0.0226,-0.003,-0.1202,0.0059,-0.0043,-0.001,293862,2021-08-07 01:52:43:948
-1.3384,0.5255,9.6379,-1.3234,0.5631,9.7006,-0.015,-0.0376,-0.0628,-2.00E-04,-0.0013,-0.0028,294362,2021-08-07 01:52:44:448
-1.3168,0.571,9.5792,-1.3273,0.5639,9.7,0.0105,0.0071,-0.1208,-0.0014,-0.0013,0.0057,294862,2021-08-07 01:52:44:948
-1.3084,0.5914,9.5708,-1.3122,0.5666,9.7019,0.0038,0.0247,-0.1311,0.0084,-0.0166,-0.0156,295363,2021-08-07 01:52:45:449
-1.318,0.5112,9.6247,-1.3019,0.5818,9.7024,-0.0162,-0.0707,-0.0777,-0.0069,0.0122,0.0064,295863,2021-08-07 01:52:45:949
-1.2917,0.5447,9.5648,-1.3029,0.5736,9.7028,0.0112,-0.0289,-0.1379,0.0017,0.0079,0.0027,296363,2021-08-07 01:52:46:449
-1.3204,0.5686,9.5505,-1.3071,0.572,9.7023,-0.0133,-0.0034,-0.1518,0.0035,0.0067,0.0015,296862,2021-08-07 01:52:46:948
-1.2797,0.5842,9.572,-1.305,0.5699,9.7027,0.0253,0.0143,-0.1307,0.0041,-0.0172,0.0033,297362,2021-08-07 01:52:47:448
-1.2941,0.5447,9.6283,-1.3106,0.5643,9.7023,0.0165,-0.0196,-0.074,0.0029,0.0024,9.00E-04,297863,2021-08-07 01:52:47:949
-1.3276,0.5315,9.6115,-1.3167,0.5576,9.7018,-0.0109,-0.0261,-0.0903,-0.0032,0.0012,-0.001,298362,2021-08-07 01:52:48:448
-1.3012,0.5435,9.5325,-1.3207,0.5543,9.7015,0.0195,-0.0108,-0.169,0.0114,-0.0013,0.0021,298863,2021-08-07 01:52:48:949
-1.2737,0.5578,9.5744,-1.326,0.557,9.7006,0.0523,8.00E-04,-0.1262,0.0078,-0.008,2.00E-04,299363,2021-08-07 01:52:49:449
-1.2893,0.5507,9.5577,-1.3263,0.5603,9.7004,0.037,-0.0096,-0.1427,4.00E-04,0.0012,0.0015,299863,2021-08-07 01:52:49:949
-1.2821,0.5686,9.584,-1.3189,0.5639,9.7012,0.0368,0.0047,-0.1172,0.0041,-0.0025,0.0039,300363,2021-08-07 01:52:50:449
-1.2665,0.595,9.5469,-1.3194,0.566,9.701,0.0529,0.0289,-0.1541,0.0041,0.0036,9.00E-04,300863,2021-08-07 01:52:50:949
-1.3228,0.5339,9.572,-1.3256,0.5628,9.7003,0.0028,-0.0289,-0.1283,0.009,-0.0031,0.0021,301363,2021-08-07 01:52:51:449
-1.3108,0.5327,9.5541,-1.3287,0.566,9.6997,0.0179,-0.0333,-0.1457,-0.0044,0.003,-0.001,301863,2021-08-07 01:52:51:949
-1.2965,0.5303,9.6091,-1.3299,0.5597,9.6999,0.0334,-0.0294,-0.0908,0.0096,-0.0147,0.0064,302362,2021-08-07 01:52:52:448
-1.2869,0.5267,9.5229,-1.319,0.5644,9.7011,0.0321,-0.0376,-0.1782,-2.00E-04,0.0024,0.0021,302863,2021-08-07 01:52:52:949
-1.2749,0.5662,9.5876,-1.3185,0.5677,9.701,0.0436,-0.0015,-0.1134,0.0023,0.0018,0.0027,303363,2021-08-07 01:52:53:449
-1.2917,0.5842,9.6031,-1.3228,0.5692,9.7003,0.0312,0.015,-0.0972,0.0017,5.00E-04,9.00E-04,303863,2021-08-07 01:52:53:949
-1.2833,0.571,9.5744,-1.3168,0.5734,9.7009,0.0335,-0.0024,-0.1265,0.0029,-0.0037,0.0039,304364,2021-08-07 01:52:54:450
-1.2953,0.5507,9.6259,-1.3205,0.5749,9.7003,0.0204,0.0105,-0.102,0.0041,0.0067,0.0021,304867,2021-08-07 01:52:54:953
-1.3647,0.5375,9.7312,-1.3213,0.5697,9.7005,0.0285,0.0145,-0.0746,-0.0057,0.0012,2.00E-04,305363,2021-08-07 01:52:55:449
-1.3384,0.5231,9.6403,-1.3335,0.5509,9.6999,0.0095,-0.0194,-0.0453,-2.00E-04,0.0018,-0.0016,305863,2021-08-07 01:52:55:949
-1.318,0.5698,9.6355,-1.3335,0.5468,9.7002,0.0335,0.0075,-0.091,0.0072,-0.0098,0.0039,306362,2021-08-07 01:52:56:448
-1.2797,0.5722,9.5888,-1.3209,0.5551,9.7014,0.0424,0.0243,-0.0851,0.0078,-7.00E-04,0.0051,306863,2021-08-07 01:52:56:949
-1.2893,0.5555,9.6091,-1.3197,0.5625,9.7011,0.0484,0.0181,-0.1052,0.0029,0.0012,0.0021,307363,2021-08-07 01:52:57:449
-1.3072,0.5614,9.6271,-1.3172,0.5662,9.7013,0.028,-0.006,-0.0299,0.0078,-0.0068,0.0039,307862,2021-08-07 01:52:57:948
-1.2857,0.5878,9.6391,-1.3131,0.5667,9.7018,0.0154,-0.0136,-0.064,-2.00E-04,0.0042,-0.0016,308363,2021-08-07 01:52:58:449
-1.3001,0.5459,9.6295,-1.3223,0.5687,9.7004,0.0187,-0.0145,-0.071,0.0017,0.003,-0.001,308863,2021-08-07 01:52:58:949
-1.3348,0.516,9.6031,-1.3237,0.5641,9.7005,0.0272,0.0093,-0.0902,0.0017,-0.0031,-0.0028,309362,2021-08-07 01:52:59:448
-1.2917,0.5806,9.6319,-1.3145,0.5676,9.7016,0.0432,-0.0014,-0.0613,0.0041,0.0012,0.0033,309863,2021-08-07 01:52:59:949
-1.2761,0.5578,9.6031,-1.3119,0.5686,9.7019,0.013,-0.0024,-0.0939,0.0029,0.003,0.0051,310363,2021-08-07 01:53:00:449
-1.2989,0.6045,9.6079,-1.313,0.5728,9.7015,-0.0218,-0.0485,-0.0241,-0.0026,0.025,0.007,310863,2021-08-07 01:53:00:949
-1.2869,0.5974,9.6678,-1.313,0.5767,9.7012,0.0118,0.0231,-0.0909,4.00E-04,-7.00E-04,0.0015,311363,2021-08-07 01:53:01:449
-1.3084,0.5962,9.6079,-1.3204,0.5763,9.7003,0.0096,-0.0424,-0.0564,-0.0032,-0.0049,-0.0034,311862,2021-08-07 01:53:01:948
-1.3036,0.559,9.5672,-1.3241,0.5681,9.7002,-0.0214,-0.0402,-0.0324,-0.013,0.0195,0.0033,312362,2021-08-07 01:53:02:448
-1.2737,0.5674,9.5912,-1.3224,0.5654,9.7006,0.0128,0.0104,-0.1394,0.0053,-0.0031,-0.0016,312863,2021-08-07 01:53:02:949
-1.2713,0.5662,9.5229,-1.3196,0.5684,9.7008,0.028,0.0086,-0.1468,0.0078,-0.0074,0.0051,313363,2021-08-07 01:53:03:449
-1.2629,0.5914,9.4966,-1.3111,0.5719,9.7018,0.029,3.00E-04,-0.2231,0.0102,0.0085,2.00E-04,313863,2021-08-07 01:53:03:949
-1.2821,0.5758,9.5337,-1.3207,0.5798,9.7,0.0386,-0.0076,-0.1771,0.0029,-0.0037,0.0033,314362,2021-08-07 01:53:04:448
-1.2426,0.565,9.5553,-1.3263,0.5803,9.6992,-0.012,0.0135,-0.1523,-0.0032,0.0036,-0.004,314862,2021-08-07 01:53:04:948
-1.2977,0.5914,9.5624,-1.3325,0.5789,9.6984,0.0025,-0.0151,-0.2306,-0.005,0.0024,9.00E-04,315363,2021-08-07 01:53:05:449
-1.2833,0.5686,9.5553,-1.3397,0.5664,9.6982,-0.0214,-0.072,-0.1286,-0.002,0.0036,-0.0059,315863,2021-08-07 01:53:05:949
-1.3072,0.5555,9.5265,-1.3416,0.5596,9.6983,9.00E-04,-0.0364,-0.1,-0.0044,0.0219,0.0088,316363,2021-08-07 01:53:06:449
-1.312,0.577,9.5373,-1.3276,0.5733,9.6994,0.0204,-0.0406,-0.1574,0.0035,-0.0031,0.0015,316863,2021-08-07 01:53:06:949
-1.2558,0.5734,9.5014,-1.3189,0.5797,9.7002,0.0021,-0.0087,-0.2312,0.0047,-0.0141,0.0039,317362,2021-08-07 01:53:07:448
-1.2905,0.5686,9.6127,-1.3092,0.5781,9.7017,0.0582,0.0324,-0.0674,0.0047,-0.0104,0.0045,317863,2021-08-07 01:53:07:949
-1.2677,0.5662,9.6211,-1.3063,0.5864,9.7016,-0.0081,-0.0441,-0.0912,0.0053,-0.0043,0.0027,318363,2021-08-07 01:53:08:449
-1.3408,0.5327,9.5804,-1.3201,0.5777,9.7002,0.0607,0.0065,-0.1749,4.00E-04,0.0067,9.00E-04,318862,2021-08-07 01:53:08:948
-1.312,0.5614,9.5397,-1.3274,0.5757,9.6993,0.0513,1.00E-04,-0.1477,-8.00E-04,-0.0049,-0.0022,319362,2021-08-07 01:53:09:448
-1.2977,0.5746,9.5624,-1.3225,0.5693,9.7004,0.0261,-0.0318,-0.1727,4.00E-04,-0.0135,-0.0046,319862,2021-08-07 01:53:09:948
-1.2965,0.5459,9.584,-1.312,0.5716,9.7017,0.0587,-0.0114,-0.1847,-0.0032,0.0036,0.0015,320364,2021-08-07 01:53:10:450
-1.2929,0.5758,9.5349,-1.3106,0.5696,9.702,0.056,0.0289,-0.1802,0.0029,0.0042,-0.0016,320862,2021-08-07 01:53:10:948
-1.2558,0.5555,9.5936,-1.3106,0.5693,9.702,-0.0026,-0.0186,-0.1515,0.0011,0.0036,2.00E-04,321362,2021-08-07 01:53:11:448
-1.2534,0.5938,9.5924,-1.3118,0.5703,9.7018,0.0177,-0.0089,-0.107,0.0053,0.0067,0.0045,321864,2021-08-07 01:53:11:950
-1.2821,0.5854,9.5541,-1.3189,0.5685,9.7009,0.0033,-0.0274,-0.1564,-8.00E-04,-0.0013,-0.0022,322363,2021-08-07 01:53:12:449
-1.2941,0.559,9.5385,-1.3206,0.5615,9.7011,0.0277,-0.024,-0.1674,0.0072,0.003,0.0027,322863,2021-08-07 01:53:12:949
-1.3156,0.5626,9.5696,-1.3163,0.5625,9.7016,0.0354,-0.0047,-0.138,0.0078,-0.0049,0.0021,323362,2021-08-07 01:53:13:448
-1.2917,0.5818,9.5612,-1.2909,0.5825,9.7038,0.0436,0.0172,-0.133,0.0023,-0.0019,9.00E-04,323862,2021-08-07 01:53:13:948
-1.251,0.6057,9.481,-1.298,0.5834,9.7028,0.0291,0.0044,-0.1679,-2.00E-04,-0.0147,0.0076,324363,2021-08-07 01:53:14:449
-1.2151,0.5806,9.5912,-1.2921,0.5833,9.7036,0.0112,-0.035,-0.1173,-8.00E-04,0.0299,0.0051,324863,2021-08-07 01:53:14:949
-1.2665,0.5423,9.5385,-1.2988,0.5746,9.7033,0.0455,-0.0288,-0.1504,4.00E-04,5.00E-04,-4.00E-04,325362,2021-08-07 01:53:15:448
-1.2043,0.4908,9.5816,-1.285,0.55,9.7065,0.1453,-0.0903,0.045,-0.005,0.0311,-0.0083,325862,2021-08-07 01:53:15:948
-1.2318,0.4824,9.5529,-1.313,0.5044,9.7053,-0.0098,0.0032,-0.0686,0.009,-0.0123,-0.0083,326363,2021-08-07 01:53:16:449
-1.2641,0.4609,9.6426,-1.2924,0.4996,9.7083,0.0342,-0.0028,-0.0764,0.0041,-0.0043,-4.00E-04,326863,2021-08-07 01:53:16:949
-1.2713,0.4932,9.6498,-1.2799,0.4933,9.7102,0.0325,-0.0205,-0.0341,0.0035,-0.0092,0.0015,327362,2021-08-07 01:53:17:448
-1.233,0.4872,9.6965,-1.2675,0.4902,9.712,0.0429,0.0078,-0.0107,0.0139,-0.0068,0.0039,327863,2021-08-07 01:53:17:949
-1.2306,0.5004,9.6546,-1.2602,0.4914,9.7129,0.032,0.003,-0.0308,-0.002,0.0042,0.0027,328363,2021-08-07 01:53:18:449
-1.227,0.4908,9.7145,-1.2554,0.4913,9.7136,0.0188,-0.0136,-0.0553,0.0078,0.0036,0.0021,328863,2021-08-07 01:53:18:949
-1.2163,0.4956,9.5589,-1.2472,0.4927,9.7145,0.0153,-0.0114,-0.1341,-0.0014,5.00E-04,0.0015,329362,2021-08-07 01:53:19:448
-1.2342,0.4609,9.6055,-1.263,0.4887,9.7127,0.0395,-0.0051,-0.1299,4.00E-04,0.0018,-0.001,329863,2021-08-07 01:53:19:949
-1.2318,0.4741,9.6019,-1.2626,0.4797,9.7132,-0.0027,-0.032,-0.1352,0.0029,-0.0062,9.00E-04,330363,2021-08-07 01:53:20:449
-1.239,0.4681,9.5433,-1.2619,0.4779,9.7134,0.0157,-0.0099,-0.1593,0.0163,-0.0123,0.0045,330863,2021-08-07 01:53:20:949
-1.2186,0.492,9.6187,-1.2473,0.4908,9.7146,0.0359,-0.0024,-0.1043,0.0047,5.00E-04,0.0015,331362,2021-08-07 01:53:21:448
-1.3683,0.4549,9.6666,-1.3853,0.4302,9.6988,-0.001,-0.0507,-0.0837,0.0078,-0.0428,-0.0187,331862,2021-08-07 01:53:21:948
-1.2941,0.4465,9.5565,-1.3258,0.4626,9.7056,0.021,-0.0448,-0.1479,0.0017,0.0207,0.0033,332362,2021-08-07 01:53:22:448
-1.2953,0.4453,9.5732,-1.3164,0.4743,9.7063,0.0308,-3.00E-04,-0.1163,0.0059,-0.0019,0.0027,332863,2021-08-07 01:53:22:949
-1.2294,0.4693,9.5816,-1.3092,0.4742,9.7073,0.0092,-0.0074,-0.0862,0.0023,-0.0019,0.0064,333363,2021-08-07 01:53:23:449
-1.2426,0.4908,9.6283,-1.2981,0.4874,9.7081,0.01,-0.0025,-0.0954,0.0041,-0.0013,0.0021,333862,2021-08-07 01:53:23:948
-1.2378,0.4729,9.6259,-1.2779,0.4928,9.7105,0.0329,0.0136,-0.0727,-2.00E-04,5.00E-04,0.0039,334362,2021-08-07 01:53:24:448
-1.2522,0.4705,9.56,-1.2688,0.4916,9.7118,0.0369,-8.00E-04,-0.1386,0.0047,-1.00E-04,0.0015,334863,2021-08-07 01:53:24:949
-1.2474,0.4776,9.5744,-1.2666,0.4963,9.7118,0.0324,0.0256,-0.2308,-0.0026,0.0232,0.0033,335363,2021-08-07 01:53:25:449
-1.2163,0.516,9.5253,-1.2591,0.4989,9.7127,0.0524,0.0039,-0.1502,0.0035,-0.0019,0.0039,335863,2021-08-07 01:53:25:949
-1.2761,0.4872,9.4727,-1.2647,0.4977,9.712,0.0712,-0.0261,-0.1831,0.0029,-0.0056,-0.0028,336363,2021-08-07 01:53:26:449
-1.2665,0.4717,9.6139,-1.2646,0.4952,9.7122,0.0268,-0.0116,-0.1545,0.0127,-0.0056,0.0015,336862,2021-08-07 01:53:26:948
-1.2175,0.5124,9.5433,-1.2588,0.4898,9.7132,0.0365,-0.0361,-0.134,0.0035,-1.00E-04,0.0076,337363,2021-08-07 01:53:27:449
-1.1708,0.5219,9.6714,-1.249,0.4867,9.7146,-0.0259,-0.0223,-0.0911,0.0078,-0.0141,-0.0053,337863,2021-08-07 01:53:27:949
-1.2079,0.5148,9.6031,-1.2437,0.4862,9.7153,-0.0217,-0.0349,-0.032,-0.005,0.0048,0.0045,338362,2021-08-07 01:53:28:448
-1.2258,0.5052,9.6007,-1.2352,0.4941,9.716,0.0238,-0.0056,-0.1105,0.0011,5.00E-04,0.0057,338863,2021-08-07 01:53:28:949
-1.2294,0.4681,9.6534,-1.2351,0.4911,9.7162,0.0261,-0.0134,-0.0328,0.0084,0.0018,0.0015,339362,2021-08-07 01:53:29:448
-1.2067,0.5339,9.6091,-1.228,0.4994,9.7166,0.0297,-0.0182,-0.1279,0.0114,-0.0031,0.0021,339863,2021-08-07 01:53:29:949
-1.2091,0.4657,9.6211,-1.235,0.5047,9.7155,0.0188,-0.0307,-0.0932,-8.00E-04,0.003,-0.0046,340363,2021-08-07 01:53:30:449
-1.2318,0.4525,9.6486,-1.2342,0.495,9.7161,0.0467,0.0221,-0.1177,0.0072,5.00E-04,0.0015,340863,2021-08-07 01:53:30:949
-1.2282,0.4513,9.5672,-1.2218,0.4948,9.7177,0.0235,0.0116,-0.2187,-0.002,0.0036,-0.004,341362,2021-08-07 01:53:31:448
-1.2438,0.4681,9.5337,-1.2288,0.4958,9.7167,0.064,0.0034,-0.1615,0.0041,0.003,-0.0022,341864,2021-08-07 01:53:31:950
-1.2438,0.4573,9.5912,-1.2374,0.497,9.7156,0.0343,0.0154,-0.14,-2.00E-04,0.003,0.0051,342362,2021-08-07 01:53:32:448
-1.2198,0.4776,9.5984,-1.2328,0.4974,9.7161,0.0464,-0.0137,-0.0998,-0.0014,0.0073,0.0021,342862,2021-08-07 01:53:32:948
-1.2043,0.4932,9.6367,-1.2301,0.4927,9.7167,0.0091,-0.0246,-0.0417,-2.00E-04,5.00E-04,0.0039,343363,2021-08-07 01:53:33:449
-1.2067,0.4872,9.5888,-1.2457,0.4863,9.715,-0.0448,-0.0434,-0.0544,-0.005,0.0048,-0.0016,343863,2021-08-07 01:53:33:949
-1.233,0.4824,9.6175,-1.2469,0.4847,9.715,0.027,-0.0119,-0.113,4.00E-04,-0.0123,0.0021,344362,2021-08-07 01:53:34:448
-1.2139,0.4848,9.6403,-1.2344,0.4872,9.7164,0.0205,-0.006,-0.0858,0.009,0.0012,0.0057,344862,2021-08-07 01:53:34:948
-1.1923,0.4896,9.6235,-1.2275,0.4895,9.7172,0.0268,0.0157,-0.0482,0.0139,0.0012,0.0039,345363,2021-08-07 01:53:35:449
-1.2079,0.5064,9.5205,-1.2328,0.4894,9.7165,0.0464,-0.0022,-0.196,0.0047,0.0036,-4.00E-04,345863,2021-08-07 01:53:35:949
-1.2007,0.4932,9.5301,-1.2368,0.4876,9.7161,0.0013,-0.0339,-0.1585,-0.0032,-0.0043,2.00E-04,346364,2021-08-07 01:53:36:450
-1.233,0.4645,9.5517,-1.2362,0.4884,9.7162,0.0212,-0.0047,-0.2387,0.0011,0.0079,0.0015,346862,2021-08-07 01:53:36:948
-1.2043,0.4752,9.5828,-1.2431,0.4866,9.7154,0.0148,-0.009,-0.117,0.0066,-0.0074,-0.0034,347363,2021-08-07 01:53:37:449
-1.1899,0.4848,9.6582,-1.2324,0.4899,9.7166,0.0161,0.0022,0.0099,-0.0014,-0.0056,-0.0022,347863,2021-08-07 01:53:37:949
-1.2043,0.5004,9.6642,-1.2209,0.4894,9.718,0.0083,-0.0166,-0.0981,0.0041,0.0085,0.0051,348363,2021-08-07 01:53:38:449
-1.1911,0.5243,9.6127,-1.2279,0.4893,9.7172,0.0069,-0.0164,-0.0613,0.0078,0.003,0.0033,348862,2021-08-07 01:53:38:948
-1.1863,0.5171,9.5948,-1.2248,0.4935,9.7173,0.0182,0.02,-0.107,0.0047,-0.0049,0.0051,349363,2021-08-07 01:53:39:449
-1.2127,0.4896,9.6331,-1.23,0.4938,9.7167,0.0318,0.0078,-0.1004,-0.0032,5.00E-04,-0.0034,349863,2021-08-07 01:53:39:949
-1.2498,0.4872,9.6331,-1.2469,0.4877,9.7148,0.0055,-0.0173,-0.0973,4.00E-04,-0.0092,-0.0059,350363,2021-08-07 01:53:40:449
-1.2222,0.48,9.6355,-1.2471,0.4851,9.7149,0.0212,-0.0074,-0.1082,0.0053,-0.0092,-4.00E-04,350863,2021-08-07 01:53:40:949
-1.2163,0.4717,9.651,-1.2386,0.4919,9.7157,0.0128,-0.0058,-0.0575,0.0047,5.00E-04,0.0045,351363,2021-08-07 01:53:41:449
-1.2103,0.4836,9.5828,-1.235,0.49,9.7162,0.0176,0.008,-0.1646,0.0066,5.00E-04,0.0027,351863,2021-08-07 01:53:41:949
-1.2234,0.4848,9.6534,-1.2316,0.4926,9.7165,0.0333,0.0149,-0.1086,0.0072,-0.0043,0.0015,352362,2021-08-07 01:53:42:448
-1.2067,0.492,9.6091,-1.2336,0.495,9.7161,0.0138,0.003,-0.0986,0.0035,-0.0019,0.0021,352863,2021-08-07 01:53:42:949
-1.2019,0.486,9.6786,-1.2278,0.4919,9.717,0.0056,0.0097,-0.0947,0.0066,0.0085,-0.001,353363,2021-08-07 01:53:43:449
-1.2414,0.498,9.6199,-1.2375,0.4924,9.7158,-0.0195,-0.004,-0.1749,-0.0087,5.00E-04,-0.0059,353863,2021-08-07 01:53:43:949
-1.2474,0.4884,9.5912,-1.2513,0.486,9.7143,0.0171,-0.0072,-0.11,0.0029,-7.00E-04,2.00E-04,354362,2021-08-07 01:53:44:448
-1.2378,0.5124,9.6139,-1.2515,0.4863,9.7143,0.0292,0.0022,-0.0944,0.0059,-0.0025,-0.0016,354862,2021-08-07 01:53:44:948
-1.2151,0.4884,9.669,-1.2496,0.4907,9.7143,0.0238,-0.0082,-0.098,0.0053,-1.00E-04,0.0021,355363,2021-08-07 01:53:45:449
-1.2198,0.4764,9.6271,-1.2443,0.4941,9.7148,0.0448,0.0146,-0.0997,0.0035,-0.0019,0.0015,355863,2021-08-07 01:53:45:949
-1.2079,0.5028,9.5648,-1.2356,0.4983,9.7157,0.0158,0.0116,-0.1126,-0.0063,0.0213,0.01,356363,2021-08-07 01:53:46:449
-1.2043,0.4872,9.6151,-1.2354,0.4993,9.7157,0.0239,0.0071,-0.1126,0.0029,5.00E-04,-0.001,356863,2021-08-07 01:53:46:949
-1.2055,0.4812,9.5948,-1.2417,0.4937,9.7152,-0.0224,-0.0269,-0.0498,-0.0038,0.0048,9.00E-04,357362,2021-08-07 01:53:47:448
-1.2342,0.4824,9.6079,-1.2532,0.4916,9.7138,-0.0026,-0.0164,-0.0795,0.0017,0.0048,-0.001,357863,2021-08-07 01:53:47:949
-1.2605,0.4681,9.5804,-1.2548,0.4874,9.7138,0.0015,-0.0217,-0.0724,0.0047,0.0018,0.0015,358363,2021-08-07 01:53:48:449
-1.2246,0.486,9.5445,-1.2558,0.4882,9.7136,0.03,-0.0153,-0.1476,0.0096,0.0012,0.0039,358862,2021-08-07 01:53:48:948
-1.2474,0.4836,9.6379,-1.2481,0.4911,9.7145,0.0498,0.0105,-0.1161,0.0078,-0.0037,0.0015,359362,2021-08-07 01:53:49:448
-1.2115,0.6237,9.572,-1.2663,0.5394,9.7096,-0.0326,-0.0557,-0.0729,-0.0057,-0.0074,-0.0101,359864,2021-08-07 01:53:49:950
-1.2534,0.5291,9.6367,-1.2414,0.5395,9.7128,0.0156,0.028,-0.1264,-0.0069,0.003,9.00E-04,360362,2021-08-07 01:53:50:448
-1.1899,0.4489,9.6091,-1.2719,0.4915,9.7114,0.003,-0.0163,-0.0508,-0.0069,0.0079,-0.0089,360862,2021-08-07 01:53:50:948
-1.2617,0.486,9.5505,-1.2693,0.4775,9.7124,0.0231,-0.0094,-0.1488,0.009,0.0067,-0.0016,361363,2021-08-07 01:53:51:449
-1.2402,0.4992,9.6151,-1.2521,0.4976,9.7136,0.0191,-0.0176,-0.0949,0.0053,-0.0049,0.0051,361863,2021-08-07 01:53:51:949
-1.2378,0.5076,9.6211,-1.24,0.5066,9.7147,0.0465,-0.0205,-0.0912,0.009,-0.0056,2.00E-04,362363,2021-08-07 01:53:52:449
-1.2378,0.5112,9.6462,-1.2303,0.5123,9.7157,0.0595,-0.0047,-0.0958,0.0133,-0.0117,-4.00E-04,362862,2021-08-07 01:53:52:948
-1.2258,0.5219,9.6151,-1.2431,0.517,9.7138,0.0328,-0.0023,-0.1023,0.0035,0.0012,0.0027,363363,2021-08-07 01:53:53:449
-1.2103,0.4836,9.6774,-1.2399,0.5152,9.7143,0.0117,-5.00E-04,-0.0896,-0.0044,0.0018,2.00E-04,363863,2021-08-07 01:53:53:949
-1.2222,0.498,9.5505,-1.2392,0.5113,9.7146,0.0026,-0.042,-0.1139,0.0011,0.0048,-0.0022,364362,2021-08-07 01:53:54:448
-1.2079,0.4908,9.6223,-1.2397,0.5054,9.7148,0.0054,-0.0242,-0.1129,-0.0014,5.00E-04,0.0021,364863,2021-08-07 01:53:54:949
-1.2067,0.4992,9.6714,-1.2338,0.5028,9.7157,0.0522,0.0131,-0.0874,0.0066,5.00E-04,0.0039,365363,2021-08-07 01:53:55:449
-1.2019,0.5148,9.5301,-1.2358,0.5027,9.7155,0.0351,0.0072,-0.1626,0.0041,0.003,0.0027,365863,2021-08-07 01:53:55:949
-1.1648,0.6189,9.4978,-1.2538,0.521,9.7122,0.0196,-0.0421,-0.1665,0.0053,-0.0166,-0.0169,366363,2021-08-07 01:53:56:449
-1.2486,0.4298,9.5612,-1.2385,0.5321,9.7136,0.0162,-0.0113,-0.1583,-0.0203,0.0219,0.0033,366863,2021-08-07 01:53:56:949
-1.2402,0.4621,9.5816,-1.2845,0.4782,9.7104,0.0383,-0.0281,-0.1647,0.0114,0.0048,-0.0059,367362,2021-08-07 01:53:57:448
-1.2151,0.4334,9.6235,-1.2722,0.4691,9.7125,-0.0314,-0.007,-0.0267,0.0163,-0.0117,-0.0181,367862,2021-08-07 01:53:57:948
-1.2067,0.4717,9.6498,-1.2259,0.4858,9.7176,0.0061,-0.0548,-0.0881,0.0053,-1.00E-04,0.0015,368363,2021-08-07 01:53:58:449
-1.1732,0.4741,9.5624,-1.2355,0.4934,9.716,-0.0143,-0.0133,-0.1595,0.0035,0.0103,-0.001,368863,2021-08-07 01:53:58:949
-1.2234,0.4848,9.6211,-1.2291,0.4951,9.7167,0.0368,-0.0103,-0.0477,0.009,-0.0111,0.0045,369362,2021-08-07 01:53:59:448
-1.2127,0.4788,9.6199,-1.2353,0.4955,9.7159,0.0227,-0.0119,-0.1104,0.0041,-0.0074,-0.001,369863,2021-08-07 01:53:59:949
-1.1672,0.504,9.6103,-1.2435,0.4899,9.7151,0.0057,-0.0266,-0.0988,-0.0026,0.0109,2.00E-04,370363,2021-08-07 01:54:00:449
-1.2414,0.4764,9.5924,-1.2433,0.4875,9.7153,0.0426,-0.0254,-0.0894,0.0072,-7.00E-04,0.007,370863,2021-08-07 01:54:00:949
-1.1851,0.48,9.6355,-1.2214,0.4915,9.7179,0.0278,-0.0019,-0.1052,0.0041,-0.0062,-4.00E-04,371362,2021-08-07 01:54:01:448
-1.2246,0.4681,9.663,-1.214,0.4909,9.7188,0.0277,-0.0049,-0.1372,0.0072,0.0122,0.0033,371863,2021-08-07 01:54:01:949
-1.2163,0.5004,9.6283,-1.226,0.4952,9.7171,0.0348,-0.0044,-0.0972,0.0078,0.0073,0.0051,372363,2021-08-07 01:54:02:449
-1.1995,0.5124,9.6019,-1.2345,0.4996,9.7158,0.0481,0.0247,-0.1306,0.0066,-1.00E-04,9.00E-04,372863,2021-08-07 01:54:02:949
-1.2115,0.4693,9.6091,-1.2293,0.5003,9.7164,0.007,-0.007,-0.0439,0.0035,0.0042,-0.0016,373362,2021-08-07 01:54:03:448
-1.2438,0.4812,9.6055,-1.2444,0.4907,9.715,0.0186,-0.0179,-0.1023,0.0047,-0.0025,2.00E-04,373863,2021-08-07 01:54:03:949
-1.227,0.4764,9.5672,-1.2412,0.4855,9.7157,0.0046,-0.0282,-0.0383,-0.0063,-0.0019,0.0051,374363,2021-08-07 01:54:04:449
-1.2091,0.492,9.596,-1.2235,0.4919,9.7176,0.0144,1.00E-04,-0.1216,0.0023,5.00E-04,0.0021,374862,2021-08-07 01:54:04:948
-1.2151,0.4824,9.5924,-1.2332,0.4933,9.7163,0.0181,-0.0108,-0.1239,0.0072,0.0024,0.0027,375363,2021-08-07 01:54:05:449
-1.1827,0.504,9.6211,-1.2296,0.4942,9.7167,0.0468,0.0097,-0.0956,0.0041,0.0115,2.00E-04,375865,2021-08-07 01:54:05:951
-1.2103,0.5028,9.6199,-1.2239,0.4983,9.7172,0.0137,0.0045,-0.0973,-0.0014,0.0036,-4.00E-04,376362,2021-08-07 01:54:06:448
-1.2414,0.5016,9.6319,-1.2266,0.4913,9.7172,-0.0148,0.0103,-0.0854,-0.0032,0.0085,0.0045,376863,2021-08-07 01:54:06:949
-1.2282,0.4788,9.6259,-1.2224,0.4947,9.7176,-0.0058,-0.0159,-0.0917,0.0047,0.0079,0.0051,377363,2021-08-07 01:54:07:449
-1.1827,0.4968,9.6905,-1.2099,0.5063,9.7185,0.0272,-0.0095,-0.028,0.0084,-0.0074,0.0015,377865,2021-08-07 01:54:07:951
-1.2414,0.4788,9.7025,-1.2174,0.5019,9.7178,-0.024,-0.0231,-0.0153,0.0029,0.0073,0.0021,378362,2021-08-07 01:54:08:448
-1.221,0.5411,9.6391,-1.2252,0.5127,9.7163,0.0042,0.0284,-0.0772,-0.0014,0.0018,0.0033,378863,2021-08-07 01:54:08:949
-1.245,0.4884,9.6379,-1.2334,0.5061,9.7156,-0.0116,-0.0177,-0.0777,0.0035,-7.00E-04,2.00E-04,379363,2021-08-07 01:54:09:449
-1.1899,0.498,9.6235,-1.2262,0.5053,9.7166,0.0363,-0.0073,-0.0931,0.0053,0.0189,0.0021,379862,2021-08-07 01:54:09:948
-1.1923,0.4681,9.6379,-1.226,0.4969,9.717,0.0337,-0.0288,-0.0792,0.0059,-0.0043,-0.0034,380363,2021-08-07 01:54:10:449
-1.1935,0.4824,9.6307,-1.2185,0.4953,9.718,0.0249,-0.0129,-0.0874,0.0047,-0.0147,-0.0016,380863,2021-08-07 01:54:10:949
-1.1684,0.4872,9.5002,-1.21,0.4997,9.7189,0.0416,-0.0124,-0.2187,0.0047,0.0073,0.0033,381362,2021-08-07 01:54:11:448
-1.2198,0.4896,9.6438,-1.2202,0.5017,9.7175,4.00E-04,-0.012,-0.0737,0.0059,-1.00E-04,0.0021,381863,2021-08-07 01:54:11:949
-1.1851,0.5136,9.6438,-1.2254,0.5017,9.7168,0.0402,0.0118,-0.073,0.0017,0.0024,0.0015,382365,2021-08-07 01:54:12:451
-1.1672,0.5255,9.5888,-1.2234,0.506,9.7169,0.0562,0.0196,-0.1281,0.0011,-1.00E-04,0.0057,382863,2021-08-07 01:54:12:949
-1.2007,0.4896,9.5828,-1.2176,0.5059,9.7176,0.0169,-0.0163,-0.1348,0.0035,0.0012,-0.0016,383362,2021-08-07 01:54:13:448
-1.2127,0.504,9.6139,-1.2185,0.5032,9.7176,0.0058,8.00E-04,-0.1037,0.0078,-0.0037,0.0039,383863,2021-08-07 01:54:13:949
-1.1648,0.5076,9.5996,-1.2181,0.493,9.7182,0.0534,0.0146,-0.1187,0.0053,-0.0104,-0.0071,384362,2021-08-07 01:54:14:448
-1.1768,0.4932,9.6379,-1.2091,0.4925,9.7194,0.0323,7.00E-04,-0.0815,0.0035,0.0085,0.0057,384862,2021-08-07 01:54:14:948
-1.2091,0.4717,9.578,-1.206,0.4944,9.7197,-0.0031,-0.0227,-0.1416,0.0023,0.0067,0.0021,385363,2021-08-07 01:54:15:449
-1.1923,0.4836,9.5792,-1.2192,0.5001,9.7177,0.0269,-0.0164,-0.1385,0.0011,0.0012,0.0021,385864,2021-08-07 01:54:15:950
-1.2019,0.5076,9.645,-1.2193,0.5033,9.7175,0.0174,0.0043,-0.0725,-0.0044,0.0232,0.0094,386362,2021-08-07 01:54:16:448
-1.2342,0.51,9.6163,-1.2223,0.5036,9.7171,-0.0119,0.0063,-0.1008,-0.0026,-0.0031,-0.004,386863,2021-08-07 01:54:16:949
-1.1983,0.5016,9.6343,-1.2243,0.503,9.7169,0.026,-0.0014,-0.0827,0.0059,-7.00E-04,9.00E-04,387363,2021-08-07 01:54:17:449
-1.1947,0.4956,9.6702,-1.2226,0.5004,9.7173,0.0279,-0.0048,-0.0471,0.0047,0.006,-0.0016,387863,2021-08-07 01:54:17:949
-1.1827,0.5183,9.6714,-1.1915,0.5145,9.7204,0.0087,0.0038,-0.049,0.0053,5.00E-04,0.0064,388363,2021-08-07 01:54:18:449
-1.1863,0.4645,9.6498,-1.211,0.521,9.7176,0.0247,-0.0565,-0.0678,0.0078,-0.0111,0.0027,388863,2021-08-07 01:54:18:949
-1.1768,0.51,9.6199,-1.2124,0.5198,9.7175,0.0356,-0.0098,-0.0976,-0.0014,0.0048,0.0033,389362,2021-08-07 01:54:19:448
-1.2103,0.5064,9.6175,-1.2187,0.5195,9.7167,0.0085,-0.0131,-0.0992,0.0047,5.00E-04,0.0033,389862,2021-08-07 01:54:19:948
-1.1624,0.51,9.6726,-1.2238,0.5098,9.7166,0.0614,2.00E-04,-0.0441,4.00E-04,5.00E-04,2.00E-04,390363,2021-08-07 01:54:20:449
-1.2019,0.5028,9.6223,-1.2284,0.5112,9.716,0.0265,-0.0084,-0.0937,-2.00E-04,0.0073,2.00E-04,390863,2021-08-07 01:54:20:949
-1.1947,0.4848,9.6606,-1.2327,0.5011,9.716,0.038,-0.0163,-0.0553,-8.00E-04,-0.0184,-0.0065,391364,2021-08-07 01:54:21:450
-1.1899,0.4992,9.6869,-1.2199,0.5034,9.7175,0.0299,-0.0042,-0.0305,0.0041,-0.0031,0.0015,391862,2021-08-07 01:54:21:948
-1.2007,0.4956,9.596,-1.2193,0.5047,9.7175,0.0186,-0.0091,-0.1215,0.0059,0.003,0.0027,392362,2021-08-07 01:54:22:448
-1.2055,0.5303,9.6187,-1.217,0.5056,9.7177,0.0115,0.0247,-0.099,-0.0063,0.0134,0.0051,392863,2021-08-07 01:54:22:949
-1.2127,0.4992,9.6103,-1.2214,0.5067,9.7171,0.0087,-0.0075,-0.1068,-2.00E-04,0.0036,0.0015,393363,2021-08-07 01:54:23:449
-1.2079,0.5112,9.5864,-1.222,0.505,9.7171,0.0141,0.0061,-0.1307,0.0059,0.0097,0.0033,393862,2021-08-07 01:54:23:948
-1.2582,0.4513,9.6391,-1.2249,0.5058,9.7167,-0.0332,-0.0544,-0.0776,0.0151,-0.0025,-0.0053,394363,2021-08-07 01:54:24:449
-1.2426,0.4992,9.645,-1.2289,0.5042,9.7163,-0.0137,-0.005,-0.0712,0.0102,-0.0153,0.0039,394863,2021-08-07 01:54:24:949
-1.1971,0.5052,9.6031,-1.2132,0.5081,9.7181,0.0161,-0.0029,-0.1149,-0.002,0.0207,0.01,395363,2021-08-07 01:54:25:449
-1.2103,0.5411,9.5888,-1.2174,0.511,9.7174,0.0071,0.0301,-0.1286,0.0011,0.0048,-0.0053,395862,2021-08-07 01:54:25:948
-1.1851,0.48,9.6007,-1.2269,0.5179,9.7158,0.0417,-0.0378,-0.1151,0.0072,0.006,0.0064,396364,2021-08-07 01:54:26:450
-1.2139,0.5303,9.6127,-1.2244,0.517,9.7162,0.0106,0.0133,-0.1034,0.0133,0.0091,0.0027,396862,2021-08-07 01:54:26:948
-1.1935,0.4932,9.584,-1.2212,0.5181,9.7165,0.0277,-0.0249,-0.1325,0.0066,-0.0031,0.0021,397363,2021-08-07 01:54:27:449
-1.2438,0.4573,9.6989,-1.2293,0.5076,9.716,-0.0145,-0.0503,-0.0171,-0.0026,5.00E-04,9.00E-04,397863,2021-08-07 01:54:27:949
-1.2091,0.5016,9.6271,-1.2312,0.5071,9.7158,0.0221,-0.0055,-0.0887,0.0023,-0.0092,9.00E-04,398362,2021-08-07 01:54:28:448
-1.2234,0.4824,9.6115,-1.2229,0.5083,9.7168,-5.00E-04,-0.0259,-0.1053,0.0017,0.0097,2.00E-04,398863,2021-08-07 01:54:28:949
-1.1935,0.5339,9.6223,-1.2173,0.5142,9.7172,0.0238,0.0197,-0.0949,0.0078,0.0073,0.0051,399363,2021-08-07 01:54:29:449
-1.2163,0.492,9.6199,-1.2218,0.5129,9.7167,0.0056,-0.0209,-0.0968,0.0059,-7.00E-04,0.0064,399863,2021-08-07 01:54:29:949
-1.2007,0.5124,9.5948,-1.2168,0.5152,9.7172,0.0161,-0.0029,-0.1225,0.0011,5.00E-04,0.0015,400362,2021-08-07 01:54:30:448
-1.2079,0.4992,9.6127,-1.2146,0.5155,9.7175,0.0067,-0.0163,-0.1048,0.0011,0.0085,-0.0016,400863,2021-08-07 01:54:30:949
-1.2677,0.4788,9.6019,-1.2308,0.5079,9.7158,-0.037,-0.0291,-0.1139,0.0072,0.0012,0.0021,401363,2021-08-07 01:54:31:449
-1.2402,0.4968,9.6331,-1.2286,0.5054,9.7162,-0.0116,-0.0086,-0.0832,0.0151,-0.0111,0.0039,401863,2021-08-07 01:54:31:949
-1.2079,0.4705,9.584,-1.2114,0.5102,9.7182,0.0035,-0.0397,-0.1342,-0.0026,0.006,9.00E-04,402362,2021-08-07 01:54:32:448
-1.2031,0.504,9.5349,-1.2244,0.5139,9.7163,0.0213,-0.0099,-0.1814,0.0035,0.003,0.0015,402863,2021-08-07 01:54:32:949
-1.1863,0.5195,9.6498,-1.2223,0.5141,9.7166,0.036,0.0055,-0.0668,0.0084,-0.0086,0.0051,403363,2021-08-07 01:54:33:449
-1.2043,0.5016,9.6067,-1.2292,0.5142,9.7157,0.0249,-0.0126,-0.109,0.0023,-0.0019,2.00E-04,403863,2021-08-07 01:54:33:949
-1.2091,0.5124,9.5481,-1.2341,0.5104,9.7153,0.025,0.0019,-0.1672,0.0017,0.0012,0.0027,404362,2021-08-07 01:54:34:448
-1.2055,0.4812,9.6091,-1.238,0.5043,9.7151,0.0325,-0.0231,-0.106,-0.0032,-0.0043,-0.0022,404863,2021-08-07 01:54:34:949
-1.2067,0.48,9.6043,-1.2374,0.4948,9.7157,0.0307,-0.0147,-0.1113,-8.00E-04,0.0042,-0.001,405364,2021-08-07 01:54:35:450
-1.1803,0.5076,9.6331,-1.233,0.4961,9.7162,0.0526,0.0115,-0.0831,0.0047,-1.00E-04,0.0021,405862,2021-08-07 01:54:35:948
-1.1756,0.4992,9.6295,-1.2177,0.5014,9.7178,0.0422,-0.0023,-0.0883,0.0029,-0.0019,9.00E-04,406363,2021-08-07 01:54:36:449
-1.1791,0.5279,9.5972,-1.2248,0.5048,9.7168,0.0456,0.0232,-0.1196,0.0072,5.00E-04,0.007,406863,2021-08-07 01:54:36:949
-1.2103,0.4956,9.5589,-1.2214,0.5084,9.717,0.0111,-0.0128,-0.1582,-0.0081,0.0177,0.0039,407363,2021-08-07 01:54:37:449
-1.2354,0.4992,9.6678,-1.2231,0.5086,9.7168,-0.0123,-0.0094,-0.049,4.00E-04,0.006,-0.001,407862,2021-08-07 01:54:37:948
-1.2378,0.486,9.6929,-1.2316,0.5018,9.7161,-0.0062,-0.0158,-0.0231,-2.00E-04,0.0012,0.0039,408363,2021-08-07 01:54:38:449
-1.2294,0.5064,9.6295,-1.234,0.4981,9.7159,0.0046,0.0083,-0.0865,-0.0295,-0.0013,-0.0053,408863,2021-08-07 01:54:38:949
-1.2163,0.3244,9.6103,-1.2166,0.3662,9.724,4.00E-04,-0.0417,-0.1137,-0.0209,-0.0025,-0.0034,409362,2021-08-07 01:54:39:448
-1.2043,0.3436,9.6738,-1.1905,0.3435,9.7281,-0.0138,0,-0.0543,0.0041,-0.0062,0.0021,409863,2021-08-07 01:54:39:949
-1.1791,0.3148,9.5924,-1.1913,0.3485,9.7278,0.0122,-0.0336,-0.1354,0.0102,-0.0062,9.00E-04,410363,2021-08-07 01:54:40:449
-1.1672,0.322,9.6474,-1.1827,0.3488,9.7288,0.0155,-0.0268,-0.0814,0.0114,-0.0098,0.0021,410863,2021-08-07 01:54:40:949
-1.1444,0.3819,9.6067,-1.1766,0.3902,9.728,0.0322,-0.0084,-0.1212,0.0096,0.0036,0.0033,411363,2021-08-07 01:54:41:449
-1.148,0.4345,9.6139,-1.1807,0.4431,9.7252,0.0327,-0.0086,-0.1113,0.0127,0.0042,0.0045,411863,2021-08-07 01:54:41:949
-1.1696,0.4561,9.5756,-1.1975,0.4717,9.7218,0.0279,-0.0156,-0.1462,0.0023,0.0012,0.0027,412362,2021-08-07 01:54:42:448
-1.1803,0.4573,9.5624,-1.1933,0.4692,9.7225,0.013,-0.0119,-0.16,0.0072,0.0085,0.0033,412863,2021-08-07 01:54:42:949
-1.2163,0.4549,9.6283,-1.2206,0.473,9.7189,0.0044,-0.0181,-0.0906,0.0066,0.0036,-4.00E-04,413363,2021-08-07 01:54:43:449
-1.1791,0.4752,9.6319,-1.2205,0.4711,9.719,0.0413,0.0042,-0.0871,0.0029,-0.0031,0.0027,413862,2021-08-07 01:54:43:948
-1.1875,0.4836,9.6426,-1.2151,0.4797,9.7192,0.0276,0.0039,-0.0766,0.0035,5.00E-04,0.0021,414363,2021-08-07 01:54:44:449
-1.1768,0.5016,9.6235,-1.2169,0.4867,9.7187,0.0402,0.0149,-0.0952,-0.0032,0.0042,0.0039,414863,2021-08-07 01:54:44:949
-1.1624,0.5171,9.5768,-1.2091,0.4906,9.7195,0.0467,0.0266,-0.1426,0.0151,-0.0086,0.0039,415363,2021-08-07 01:54:45:449
-1.1756,0.4944,9.6151,-1.2128,0.4928,9.7189,0.0373,0.0016,-0.1038,0.0023,0.0012,0.0015,415862,2021-08-07 01:54:45:948
-1.16,0.5088,9.6223,-1.2134,0.4964,9.7186,0.0534,0.0123,-0.0963,-8.00E-04,0.0036,9.00E-04,416363,2021-08-07 01:54:46:449
-1.2091,0.498,9.6415,-1.2147,0.4972,9.7184,0.0056,8.00E-04,-0.077,-0.0026,0.0048,2.00E-04,416863,2021-08-07 01:54:46:949
-1.2354,0.4633,9.6031,-1.2291,0.4893,9.717,-0.0063,-0.026,-0.1139,0.0041,-0.0031,-0.0028,417363,2021-08-07 01:54:47:449
-1.2534,0.4824,9.7109,-1.2301,0.4893,9.7169,-0.0233,-0.0068,-0.006,0.0023,0.0128,0.0027,417863,2021-08-07 01:54:47:949
-1.2234,0.486,9.6031,-1.2278,0.4909,9.7171,0.0044,-0.0048,-0.1139,0.0017,0.0012,0.0033,418362,2021-08-07 01:54:48:448
-1.2282,0.4884,9.6331,-1.2275,0.49,9.7172,-7.00E-04,-0.0016,-0.0841,0.0084,-0.0049,0.0027,418863,2021-08-07 01:54:48:949
-1.2031,0.4764,9.5756,-1.2227,0.4921,9.7177,0.0196,-0.0156,-0.1421,0.0041,-0.0037,0.0021,419363,2021-08-07 01:54:49:449
-1.1875,0.4776,9.6247,-1.2168,0.4925,9.7184,0.0293,-0.0149,-0.0937,0.0035,0.0024,2.00E-04,419863,2021-08-07 01:54:49:949
-1.2594,0.4537,9.669,-1.2294,0.4889,9.717,-0.03,-0.0352,-0.048,-0.0075,0.006,-0.0022,420362,2021-08-07 01:54:50:448
-1.239,0.4752,9.6283,-1.2382,0.492,9.7157,-8.00E-04,-0.0168,-0.0874,-8.00E-04,-1.00E-04,-0.001,420863,2021-08-07 01:54:50:949
-1.2354,0.4848,9.6091,-1.2361,0.4912,9.716,6.00E-04,-0.0064,-0.1069,0.0029,-0.0214,-0.0022,421363,2021-08-07 01:54:51:449
-1.2103,0.4872,9.6091,-1.228,0.4937,9.7169,0.0177,-0.0065,-0.1078,0.0011,-0.0037,0.0015,421862,2021-08-07 01:54:51:948
-1.1995,0.4812,9.6331,-1.2259,0.4979,9.717,0.0264,-0.0166,-0.0839,0.0035,0.0012,0.0027,422363,2021-08-07 01:54:52:449
-1.1791,0.5112,9.5924,-1.2162,0.5029,9.7179,0.037,0.0083,-0.1256,0.0041,0.0018,0.0021,422863,2021-08-07 01:54:52:949
-1.2031,0.4944,9.6211,-1.2129,0.5049,9.7182,0.0098,-0.0105,-0.0971,-2.00E-04,0.0103,0.0021,423362,2021-08-07 01:54:53:448
-1.2462,0.486,9.6043,-1.2335,0.4995,9.7159,-0.0127,-0.0134,-0.1116,-0.0038,-0.0074,-0.0046,423862,2021-08-07 01:54:53:948
-1.2186,0.4896,9.6714,-1.2342,0.4978,9.7159,0.0156,-0.0081,-0.0446,-0.0069,-0.0037,-0.0022,424363,2021-08-07 01:54:54:449
-1.1959,0.4561,9.6007,-1.2277,0.4846,9.7174,0.0318,-0.0285,-0.1167,0.0041,0.0018,0.0015,424863,2021-08-07 01:54:54:949
-1.1959,0.4872,9.6103,-1.2246,0.4822,9.7179,0.0287,0.005,-0.1076,0.0029,-1.00E-04,0.0021,425363,2021-08-07 01:54:55:449
-1.1887,0.5004,9.6929,-1.2163,0.4838,9.7189,0.0276,0.0166,-0.026,-8.00E-04,0.003,0.0033,425862,2021-08-07 01:54:55:948
-1.1839,0.4884,9.5972,-1.217,0.4853,9.7187,0.0331,0.0031,-0.1216,0.0072,-0.0037,0.0021,426364,2021-08-07 01:54:56:450
-1.2067,0.5064,9.5948,-1.218,0.4903,9.7184,0.0113,0.0161,-0.1236,4.00E-04,0.0207,0.0088,426862,2021-08-07 01:54:56:948
-1.1959,0.5028,9.6127,-1.2103,0.4945,9.7191,0.0144,0.0083,-0.1064,0.0023,0.0048,2.00E-04,427362,2021-08-07 01:54:57:448
-1.2498,0.4717,9.6031,-1.2314,0.4926,9.7165,-0.0183,-0.0209,-0.1134,0.0047,0.0091,2.00E-04,427864,2021-08-07 01:54:57:950
-1.2198,0.4752,9.6079,-1.23,0.491,9.7168,0.0102,-0.0157,-0.1089,0.0114,-0.0037,0.0021,428363,2021-08-07 01:54:58:449
-1.2031,0.4848,9.6067,-1.2269,0.488,9.7174,0.0238,-0.0031,-0.1106,0.0053,-0.0056,0.0015,428862,2021-08-07 01:54:58:948
-1.1959,0.4872,9.6127,-1.2233,0.4909,9.7177,0.0274,-0.0036,-0.1049,0.0041,0.0018,0.0015,429363,2021-08-07 01:54:59:449
-1.1863,0.486,9.6235,-1.2186,0.4927,9.7182,0.0323,-0.0067,-0.0947,4.00E-04,-1.00E-04,0.0015,429863,2021-08-07 01:54:59:949
-1.1839,0.4872,9.584,-1.2194,0.4954,9.7179,0.0355,-0.0082,-0.1339,0.0047,5.00E-04,0.0015,430362,2021-08-07 01:55:00:448
-1.1935,0.4932,9.6091,-1.2144,0.4966,9.7185,0.0209,-0.0034,-0.1094,0.0121,-0.0043,0.0015,430863,2021-08-07 01:55:00:949
-1.2019,0.4992,9.5948,-1.2258,0.4973,9.717,0.0239,0.0019,-0.1223,0.0011,0.0042,-4.00E-04,431363,2021-08-07 01:55:01:449
-1.1923,0.4872,9.584,-1.2267,0.4949,9.717,0.0344,-0.0077,-0.133,0.0011,-0.0074,9.00E-04,431862,2021-08-07 01:55:01:948
-1.2031,0.4848,9.6415,-1.2272,0.4937,9.717,0.0241,-0.0088,-0.0756,0.0023,-0.0025,0.0021,432363,2021-08-07 01:55:02:449
-1.1756,0.5004,9.5589,-1.2236,0.4962,9.7174,0.048,0.0042,-0.1585,-0.0026,0.003,0.0045,432863,2021-08-07 01:55:02:949
-1.1959,0.4788,9.5984,-1.2176,0.4965,9.7181,0.0217,-0.0177,-0.1197,0.0066,0.0079,0.0033,433363,2021-08-07 01:55:03:449
-1.1732,0.5016,9.5541,-1.217,0.5012,9.7179,0.0438,3.00E-04,-0.1639,0.0047,0.0018,9.00E-04,433862,2021-08-07 01:55:03:948
-1.2163,0.4908,9.596,-1.2176,0.5024,9.7178,0.0013,-0.0116,-0.1218,4.00E-04,0.0018,0.0015,434363,2021-08-07 01:55:04:449
-1.2019,0.4872,9.5696,-1.2154,0.5049,9.7179,0.0135,-0.0177,-0.1483,4.00E-04,0.0042,9.00E-04,434863,2021-08-07 01:55:04:949
-1.2378,0.4657,9.6259,-1.2255,0.4951,9.7172,-0.0123,-0.0294,-0.0913,0.0035,-0.0098,-0.0022,435363,2021-08-07 01:55:05:449
-1.2198,0.4381,9.663,-1.2236,0.4866,9.7178,0.0038,-0.0484,-0.0548,4.00E-04,-7.00E-04,-0.001,435862,2021-08-07 01:55:05:948
-1.1959,0.5064,9.6103,-1.2195,0.4924,9.7181,0.0236,0.014,-0.1077,0.0023,-0.0013,0.0021,436363,2021-08-07 01:55:06:449
-1.1768,0.504,9.5732,-1.2148,0.4988,9.7183,0.038,0.0052,-0.1451,-0.0026,0.0067,0.0033,436863,2021-08-07 01:55:06:949
-1.2031,0.5076,9.578,-1.2142,0.5054,9.7181,0.0111,0.0022,-0.1401,0.0035,0.0158,0.0057,437362,2021-08-07 01:55:07:448
-1.1875,0.5112,9.6534,-1.2115,0.5076,9.7183,0.024,0.0036,-0.0649,0.0017,5.00E-04,0.0015,437863,2021-08-07 01:55:07:949
-1.1803,0.5088,9.5636,-1.214,0.5102,9.7178,0.0336,-0.0015,-0.1542,-0.005,-0.0153,-0.001,438362,2021-08-07 01:55:08:448
-1.1995,0.5231,9.5936,-1.2144,0.5097,9.7178,0.015,0.0134,-0.1242,0.0139,-0.0068,0.0027,438863,2021-08-07 01:55:08:949
-1.2007,0.4681,9.584,-1.2246,0.5027,9.7169,0.0239,-0.0346,-0.1329,0.0017,-0.0074,-4.00E-04,439363,2021-08-07 01:55:09:449
-1.2222,0.4645,9.6127,-1.2228,0.4987,9.7173,6.00E-04,-0.0342,-0.1046,0.0029,-0.0043,0.0015,439863,2021-08-07 01:55:09:949
-1.1887,0.5064,9.5493,-1.2117,0.503,9.7185,0.023,0.0033,-0.1692,0.0029,-1.00E-04,0.0021,440363,2021-08-07 01:55:10:449
-1.1971,0.4908,9.6235,-1.2104,0.5073,9.7184,0.0133,-0.0165,-0.0949,0.0041,0.0024,0.0064,440863,2021-08-07 01:55:10:949
-1.2186,0.4896,9.6618,-1.2081,0.5105,9.7186,-0.0105,-0.0208,-0.0568,-0.0032,0.0067,0.0021,441363,2021-08-07 01:55:11:449
-1.2007,0.4932,9.6019,-1.2082,0.5133,9.7184,0.0075,-0.0201,-0.1164,0.0023,-1.00E-04,0.0033,441862,2021-08-07 01:55:11:948
-1.2294,0.4573,9.651,-1.2283,0.5114,9.716,-0.0012,-0.0541,-0.065,-0.0081,-0.0166,-0.004,442363,2021-08-07 01:55:12:449
-1.2402,0.4729,9.6043,-1.223,0.5018,9.7171,-0.0172,-0.0289,-0.1128,0.0066,-0.0019,-0.0028,442863,2021-08-07 01:55:12:949
-1.1959,0.4477,9.6127,-1.2154,0.4998,9.7182,0.0195,-0.0521,-0.1055,0.0017,-0.0019,-4.00E-04,443362,2021-08-07 01:55:13:448
-1.1959,0.4836,9.6223,-1.2078,0.501,9.7191,0.0119,-0.0173,-0.0968,0.0017,-0.0037,-4.00E-04,443863,2021-08-07 01:55:13:949
-1.1779,0.5028,9.5924,-1.1996,0.5067,9.7198,0.0216,-0.0039,-0.1274,0.0053,0.0024,0.0021,444363,2021-08-07 01:55:14:449
-1.1863,0.4908,9.6522,-1.2101,0.5099,9.7183,0.0238,-0.0191,-0.0661,0.0096,-0.0068,-0.0028,444862,2021-08-07 01:55:14:948
-1.2007,0.5219,9.6319,-1.2069,0.5164,9.7184,0.0063,0.0056,-0.0865,-0.0057,0.0115,0.0039,445363,2021-08-07 01:55:15:449
-1.2175,0.4932,9.6031,-1.2068,0.5154,9.7185,0.0049,-0.0246,-0.1237,-0.002,0.006,-0.0022,445863,2021-08-07 01:55:15:949
-1.2282,0.4968,9.6055,-1.2141,0.5074,9.718,0.0361,-0.0154,-0.1651,0.0035,-0.0135,-0.0022,446362,2021-08-07 01:55:16:448
-1.1612,0.5243,9.6091,-1.2147,0.5068,9.7179,0.0211,-0.0064,-0.1052,0.0096,-0.0141,0.0027,446863,2021-08-07 01:55:16:949
-1.1851,0.4992,9.6187,-1.2142,0.5079,9.7179,0.041,0.0068,-0.1256,0.0066,-0.0025,0.0027,447363,2021-08-07 01:55:17:449
-1.2043,0.5315,9.6163,-1.2164,0.5148,9.7173,0.0432,0.0156,-0.0603,0.0011,0.0018,0.007,447862,2021-08-07 01:55:17:948
-1.1612,0.4645,9.6139,-1.2136,0.5202,9.7174,0.0141,0.0089,-0.1441,-0.0014,-1.00E-04,-0.0046,448363,2021-08-07 01:55:18:449
-1.2294,0.5028,9.6163,-1.219,0.5159,9.7169,0.0375,-0.0059,-0.0659,0.0066,0.0085,-4.00E-04,448863,2021-08-07 01:55:18:949
-1.1504,0.5052,9.6175,-1.2177,0.5201,9.7168,-9.00E-04,-0.034,-0.0562,0.0121,-0.0043,0.007,449362,2021-08-07 01:55:19:448
-1.1768,0.5447,9.6019,-1.2205,0.5088,9.7171,-0.0161,-0.0622,-0.1199,0.0084,-0.0049,-0.004,449863,2021-08-07 01:55:19:949
-1.1564,0.5088,9.6355,-1.2138,0.5089,9.7179,0.0023,-0.0396,-0.1112,0.0053,5.00E-04,0.0045,450363,2021-08-07 01:55:20:449
-1.0894,0.5938,9.6283,-1.2176,0.564,9.7144,-0.0765,-0.0553,-0.1125,0.0053,-0.0013,0.0015,450863,2021-08-07 01:55:20:949
-1.2139,0.5004,9.6043,-1.2189,0.5936,9.7125,0.0062,0.0062,-0.0806,-8.00E-04,0.0079,9.00E-04,451363,2021-08-07 01:55:21:449
-1.1851,0.5794,9.6079,-1.225,0.5918,9.7118,0.0183,-0.0076,-0.1159,0.0035,0.0122,0.007,451863,2021-08-07 01:55:21:949
-1.2653,0.4477,9.6379,-1.2284,0.5727,9.7125,0.0336,0.0247,-0.1333,-0.0087,0.0207,0.0057,452362,2021-08-07 01:55:22:448
-1.2594,0.4884,9.5996,-1.2559,0.5253,9.7117,0.0229,-0.0596,-0.105,-8.00E-04,0.0091,-0.0022,452863,2021-08-07 01:55:22:949
-1.2737,0.4944,9.6139,-1.232,0.5405,9.7139,0.0816,0.0341,-0.1144,0.009,0.0109,-0.0053,453362,2021-08-07 01:55:23:448
-1.1552,0.4513,9.6211,-1.2035,0.5412,9.7175,0.0075,-0.0264,-0.0976,0.0035,0.0012,0.0045,453863,2021-08-07 01:55:23:949
-1.1827,0.5315,9.5984,-1.2105,0.5373,9.7168,0.0361,0.0146,-0.1364,0.0029,-0.0049,-0.0028,454363,2021-08-07 01:55:24:449
-1.1851,0.5399,9.5876,-1.2096,0.5348,9.7171,0.0496,0.0027,-0.1367,0.0072,0.0097,0.0027,454862,2021-08-07 01:55:24:948
-1.1911,0.4968,9.6055,-1.2166,0.5335,9.7163,0.041,0.0028,-0.1263,0.0011,-0.0019,-4.00E-04,455363,2021-08-07 01:55:25:449
-1.2163,0.5171,9.6295,-1.2245,0.5273,9.7156,0.0501,0.0245,-0.1017,-8.00E-04,0.0048,0.0015,455863,2021-08-07 01:55:25:949
-1.1887,0.498,9.6247,-1.2221,0.5285,9.7158,0.0298,0.0018,-0.0935,-0.0026,-0.0019,-0.0046,456363,2021-08-07 01:55:26:449
-1.2186,0.5231,9.6726,-1.2185,0.5394,9.7157,0.0334,-0.0078,-0.079,0.0041,0.0024,0.0033,456863,2021-08-07 01:55:26:949
-1.1971,0.5375,9.6043,-1.2185,0.5396,9.7157,0.0154,-0.0237,-0.1341,-0.0014,5.00E-04,0.0045,457363,2021-08-07 01:55:27:449
-1.1887,0.5363,9.6283,-1.2122,0.5391,9.7165,0.0259,0.0128,-0.0631,0.0041,5.00E-04,0.0057,457863,2021-08-07 01:55:27:949
-1.1959,0.5363,9.5445,-1.2201,0.5401,9.7155,0.017,0.0022,-0.1171,0.0047,-0.0025,-4.00E-04,458363,2021-08-07 01:55:28:449
-1.1815,0.5531,9.6043,-1.2163,0.5423,9.7158,0.0324,-0.0144,-0.1151,-8.00E-04,-0.0019,-4.00E-04,458863,2021-08-07 01:55:28:949
-1.2055,0.5291,9.5828,-1.2235,0.5449,9.7148,0.0181,-0.0026,-0.1379,0.0078,0.0042,-0.001,459362,2021-08-07 01:55:29:448
-1.2486,0.5171,9.6582,-1.2221,0.5423,9.7151,0.0465,0.0036,-0.1095,-0.0044,-0.0043,-0.0028,459863,2021-08-07 01:55:29:949
-1.2067,0.5471,9.6043,-1.2226,0.5419,9.715,0.0087,0.004,-0.1059,0.0029,0.0042,0.0015,460363,2021-08-07 01:55:30:449
-1.2151,0.5339,9.5948,-1.2257,0.5407,9.7147,0.0286,-0.0176,-0.1427,-0.0014,0.006,0.0051,460863,2021-08-07 01:55:30:949
-1.2115,0.5435,9.6115,-1.2229,0.5434,9.7149,0.027,-0.0059,-0.1704,0.0127,-0.0104,0.0039,461363,2021-08-07 01:55:31:449
-1.2031,0.5614,9.6067,-1.2229,0.5445,9.7149,0.0294,-0.0034,-0.1057,4.00E-04,-1.00E-04,0.0015,461862,2021-08-07 01:55:31:948
-1.1827,0.5459,9.6271,-1.2233,0.5476,9.7146,0.0309,0.0091,-0.1043,-0.0032,0.0024,9.00E-04,462362,2021-08-07 01:55:32:448
-1.1911,0.5423,9.5948,-1.2205,0.5482,9.7149,0.0282,-0.0203,-0.101,0.0047,0.0048,0.0021,462863,2021-08-07 01:55:32:949
-1.1983,0.5255,9.5253,-1.234,0.5469,9.7133,0.0142,-0.0094,-0.1401,4.00E-04,0.0024,-0.0053,463363,2021-08-07 01:55:33:449
-1.2055,0.5327,9.566,-1.2327,0.5457,9.7136,0.0164,0.0074,-0.1499,0.0102,-0.0086,0.0015,463863,2021-08-07 01:55:33:949
-1.1791,0.5447,9.6031,-1.2198,0.5488,9.715,0.0192,-0.0233,-0.0855,0.0041,-0.0013,0.0027,464363,2021-08-07 01:55:34:449
-1.1624,0.5543,9.6067,-1.2134,0.5486,9.7158,0.0187,0.0069,-0.1139,0.0078,-0.0068,0.0027,464863,2021-08-07 01:55:34:949
-1.1911,0.5375,9.5577,-1.2078,0.5501,9.7164,0.0095,-0.0102,-0.0977,0.0066,-0.0068,0.0021,465363,2021-08-07 01:55:35:449
-1.1815,0.5171,9.6079,-1.2163,0.5486,9.7154,0.0049,-0.0195,-0.1243,0.0029,0.0012,0.0015,465862,2021-08-07 01:55:35:948
-1.1612,0.5519,9.6103,-1.2179,0.542,9.7156,0.0088,-0.0189,-0.1113,0.0053,0.0109,2.00E-04,466363,2021-08-07 01:55:36:449
-1.2007,0.5339,9.5672,-1.2237,0.5393,9.715,0.0075,-0.0174,-0.1311,4.00E-04,0.0036,-0.0022,466864,2021-08-07 01:55:36:950
-1.2019,0.5171,9.6091,-1.2258,0.5328,9.7151,-0.0048,-0.0253,-0.0833,0.0017,0.0018,-0.001,467363,2021-08-07 01:55:37:449
-1.1935,0.5291,9.645,-1.2235,0.5339,9.7154,-0.0095,0.0048,-0.0272,0.0017,-7.00E-04,0.0039,467863,2021-08-07 01:55:37:949
-1.1923,0.5351,9.6462,-1.2148,0.5387,9.7162,0.0237,-0.0048,-0.0807,4.00E-04,0.0024,0.0027,468362,2021-08-07 01:55:38:448
-1.2175,0.5363,9.6558,-1.2215,0.5401,9.7153,0.0268,0.0237,-0.0966,0.0072,-1.00E-04,0.0021,468863,2021-08-07 01:55:38:949
-1.2127,0.5363,9.6295,-1.2201,0.5415,9.7154,0.0242,0.0079,-0.0643,0.0066,0.0097,0.0039,469363,2021-08-07 01:55:39:449
-1.2115,0.5459,9.6115,-1.2196,0.5432,9.7153,0.0129,-0.0033,-0.1206,0.0059,0.0024,-0.001,469863,2021-08-07 01:55:39:949
-1.2665,0.5076,9.6115,-1.2255,0.5423,9.7146,0.0045,0.0024,-0.1714,-0.0105,0.0018,-0.0016,470362,2021-08-07 01:55:40:448
-1.2234,0.5387,9.59,-1.2346,0.5337,9.714,0.0172,-0.0046,-0.1132,0.0053,-0.0025,0.0015,470863,2021-08-07 01:55:40:949
-1.2198,0.5435,9.6283,-1.2348,0.5355,9.7139,0.0257,0.0044,-0.0963,-0.0044,-0.0147,-4.00E-04,471363,2021-08-07 01:55:41:449
-1.2115,0.5303,9.5912,-1.2288,0.5422,9.7142,0.0173,-0.0047,-0.1207,0.0066,0.0012,0.0027,471863,2021-08-07 01:55:41:949
-1.1995,0.5495,9.6438,-1.2338,0.5461,9.7134,0.0212,-0.0074,-0.0911,0.0053,0.0024,0.0057,472363,2021-08-07 01:55:42:449
-1.2043,0.5519,9.5684,-1.2311,0.5469,9.7137,0.0376,0.0038,-0.0507,0.0145,-0.0111,0.0015,472862,2021-08-07 01:55:42:948
-1.2175,0.5303,9.6019,-1.2307,0.5454,9.7138,-0.0023,0.0017,-0.1083,0.0023,0.0042,-4.00E-04,473363,2021-08-07 01:55:43:449
-1.2486,0.5471,9.5541,-1.2361,0.5423,9.7133,-0.0017,-0.0323,-0.1676,-0.0118,0.0079,-0.001,473863,2021-08-07 01:55:43:949
-1.2414,0.5195,9.5984,-1.2466,0.5348,9.7124,0.0064,-0.0068,-0.1188,0.0047,0.0036,9.00E-04,474362,2021-08-07 01:55:44:448
-1.2067,0.5543,9.5768,-1.2575,0.5344,9.711,0.0209,-0.0125,-0.0887,0.0035,0.0036,0.0021,474864,2021-08-07 01:55:44:950
-1.2139,0.5483,9.6127,-1.2495,0.5401,9.7117,0.0261,-0.0014,-0.0906,0.0017,0.0018,0.0021,475362,2021-08-07 01:55:45:448
-1.2198,0.5171,9.5792,-1.2468,0.5426,9.7119,0.0581,-0.0123,-0.2045,-0.002,-0.0147,2.00E-04,475862,2021-08-07 01:55:45:948
-1.2127,0.5339,9.5636,-1.2384,0.5423,9.713,0.0269,-0.0072,-0.1458,0.0127,-0.0074,0.0015,476363,2021-08-07 01:55:46:449
-1.227,0.5315,9.5852,-1.2456,0.5419,9.7121,0.021,-0.0068,-0.085,0.0023,0.0036,-4.00E-04,476862,2021-08-07 01:55:46:948
-1.2749,0.5052,9.6235,-1.2469,0.5368,9.7122,0.0366,-5.00E-04,-0.0995,-0.002,-0.0031,9.00E-04,477362,2021-08-07 01:55:47:448
-1.2474,0.5303,9.6606,-1.2474,0.5362,9.7122,0.0275,1.00E-04,-0.072,0.0017,0.0024,9.00E-04,477863,2021-08-07 01:55:47:949
-1.2498,0.5327,9.56,-1.246,0.535,9.7124,0.0513,-0.0059,-0.1141,0.0047,-0.0178,0.0021,478363,2021-08-07 01:55:48:449
-1.2091,0.5339,9.5756,-1.2391,0.5404,9.713,0.0277,-0.016,-0.153,0.0029,0.0177,0.0051,478863,2021-08-07 01:55:48:949
-1.2067,0.5459,9.5948,-1.2355,0.5422,9.7134,0.0539,0.0384,-0.1294,0.0023,-0.0013,-4.00E-04,479363,2021-08-07 01:55:49:449
-1.1935,0.5399,9.6474,-1.2348,0.5442,9.7134,0.0102,-7.00E-04,-0.0923,0.0023,0.0036,2.00E-04,479862,2021-08-07 01:55:49:948
-1.1899,0.5387,9.6163,-1.2286,0.5449,9.7141,4.00E-04,0.0034,-0.1182,4.00E-04,0.0067,2.00E-04,480363,2021-08-07 01:55:50:449
-1.2103,0.5279,9.6379,-1.2415,0.5389,9.7128,0.0085,-0.0014,-0.1049,-0.0057,-0.0153,-0.0053,480863,2021-08-07 01:55:50:949
-1.2067,0.5327,9.5696,-1.2386,0.5363,9.7133,0.0343,-0.012,-0.1257,0.0066,0.0134,0.0033,481363,2021-08-07 01:55:51:449
-1.2306,0.5303,9.6211,-1.2394,0.5339,9.7133,0.0208,-0.0168,-0.1018,0.0035,-0.0025,0.0039,481862,2021-08-07 01:55:51:948
-1.2186,0.5339,9.6163,-1.2375,0.5319,9.7137,0.0499,-0.0064,-0.1058,0.0035,0.0048,0.0033,482363,2021-08-07 01:55:52:449
-1.2186,0.5207,9.5696,-1.2281,0.5363,9.7147,0.0298,0.0024,-0.0696,0.0011,-0.0013,0.0027,482863,2021-08-07 01:55:52:949
-1.2163,0.5243,9.6091,-1.2297,0.5373,9.7144,0.0326,-0.0094,-0.1125,0.0011,0.0012,0.0057,483362,2021-08-07 01:55:53:448
-1.2127,0.5291,9.5696,-1.2414,0.5327,9.7132,-0.0192,-0.0299,-0.0765,-0.0112,0.0158,2.00E-04,483862,2021-08-07 01:55:53:948
-1.2318,0.5231,9.5996,-1.2495,0.5348,9.712,0.0117,-0.0057,-0.1352,-2.00E-04,-1.00E-04,-0.0028,484362,2021-08-07 01:55:54:448
-1.2031,0.5112,9.5445,-1.2472,0.5306,9.7125,0.0046,-0.0326,-0.1513,0.0023,-0.0129,-0.0028,484863,2021-08-07 01:55:54:949
-1.2222,0.5207,9.5732,-1.2453,0.5277,9.7129,0.0278,0.0158,-0.032,0.0084,0.0018,0.0033,485363,2021-08-07 01:55:55:449
-1.2055,0.5207,9.5996,-1.2424,0.5274,9.7133,0.0201,-0.0079,-0.085,0.0017,5.00E-04,9.00E-04,485862,2021-08-07 01:55:55:948
-1.1959,0.5363,9.6031,-1.2393,0.5274,9.7137,0.0254,-0.0067,-0.0818,4.00E-04,0.0018,0.0027,486363,2021-08-07 01:55:56:449
-1.1983,0.5231,9.6343,-1.2294,0.5285,9.7149,0.0215,-0.0078,-0.1022,0.0011,5.00E-04,0.0015,486863,2021-08-07 01:55:56:949
-1.2186,0.5148,9.5744,-1.2422,0.5266,9.7134,0.0092,-0.0011,-0.1031,0.0047,0.0012,-0.0028,487362,2021-08-07 01:55:57:448
-1.2402,0.5016,9.6426,-1.2424,0.5257,9.7134,0.001,-0.0086,-0.1282,0.0059,0.0048,9.00E-04,487863,2021-08-07 01:55:57:949
-1.2294,0.5219,9.5732,-1.2399,0.5187,9.7141,0.0153,0.0104,-0.0954,0.0029,0.0042,0.0021,488362,2021-08-07 01:55:58:448
-1.2103,0.51,9.6379,-1.2469,0.5229,9.713,-0.0016,0.0038,-0.0835,0.0078,-0.0104,0.0021,488863,2021-08-07 01:55:58:949
-1.2139,0.5052,9.5648,-1.2414,0.5259,9.7135,0.0203,0.0104,-0.102,0.0059,-0.0098,0.0021,489364,2021-08-07 01:55:59:450
-1.1887,0.5267,9.6019,-1.2347,0.5272,9.7143,0.0232,0.0019,-0.1112,-2.00E-04,-7.00E-04,0.0021,489863,2021-08-07 01:55:59:949
-1.1887,0.5411,9.6007,-1.2305,0.5275,9.7148,0.0239,-0.0367,-0.1069,0.0072,0.0067,0.0015,490362,2021-08-07 01:56:00:448
-1.2198,0.5423,9.6522,-1.2299,0.5274,9.7149,0.0016,-0.0138,-0.1405,0.0029,0.0067,2.00E-04,490862,2021-08-07 01:56:00:948
-1.2438,0.5004,9.6019,-1.2423,0.5214,9.7137,0.0081,-0.0055,-0.1021,-0.0014,0.0024,9.00E-04,491364,2021-08-07 01:56:01:450
-1.2222,0.5052,9.5708,-1.2411,0.5165,9.7141,-0.0099,0.0043,-0.087,0.0041,-0.0049,0.0039,491863,2021-08-07 01:56:01:949
-1.2163,0.5064,9.6379,-1.2372,0.5181,9.7145,0.0317,-0.0118,-0.1377,0.0017,-0.0031,0.0033,492363,2021-08-07 01:56:02:449
-1.2019,0.5195,9.5744,-1.2349,0.5211,9.7146,0.015,0.002,-0.084,0.0053,-0.0049,0.0015,492863,2021-08-07 01:56:02:949
-1.1756,0.5279,9.6115,-1.2294,0.524,9.7152,-0.0108,-0.002,-0.0641,-0.0044,0.0152,0.0057,493363,2021-08-07 01:56:03:449
-1.2031,0.5399,9.6187,-1.2267,0.5282,9.7153,0.0248,-0.0062,-0.1002,-2.00E-04,-7.00E-04,9.00E-04,493863,2021-08-07 01:56:03:949
-1.2007,0.5255,9.5984,-1.2252,0.5303,9.7154,0.0065,-0.0035,-0.1314,-0.0063,-0.0123,-0.0022,494362,2021-08-07 01:56:04:448
-1.1935,0.5255,9.5553,-1.2246,0.5284,9.7155,0.0263,-0.0185,-0.0669,0.0078,0.0048,-0.0022,494863,2021-08-07 01:56:04:949
-1.1875,0.4776,9.6163,-1.2103,0.5007,9.7188,0.0192,-0.0135,-0.1037,0.0072,-1.00E-04,-0.0034,495363,2021-08-07 01:56:05:449
-1.1923,0.4932,9.6103,-1.218,0.5063,9.7175,-0.0018,-0.0071,-0.1371,0.0059,0.0024,0.0021,495863,2021-08-07 01:56:05:949
-1.1935,0.516,9.5804,-1.2164,0.5069,9.7177,0.0229,-0.0065,-0.1601,-2.00E-04,-1.00E-04,0.0039,496362,2021-08-07 01:56:06:448
-1.1815,0.5303,9.6151,-1.2155,0.5105,9.7176,0.034,-5.00E-04,-0.1217,0.0041,0.0036,9.00E-04,496862,2021-08-07 01:56:06:948
-1.2055,0.5267,9.6331,-1.2187,0.5152,9.717,0.036,0.0127,-0.1067,0.0011,0.0024,0.0033,497363,2021-08-07 01:56:07:449
-1.2031,0.5195,9.6331,-1.2162,0.5219,9.7169,0.0191,-0.0023,-0.0707,4.00E-04,-0.0031,9.00E-04,497862,2021-08-07 01:56:07:948
-1.2198,0.5267,9.6151,-1.2318,0.5241,9.7149,0.0131,-0.0285,-0.1081,0.0023,-1.00E-04,-0.0022,498363,2021-08-07 01:56:08:449
