ACCELEROMETER X (m/s²),ACCELEROMETER Y (m/s²),ACCELEROMETER Z (m/s²),GRAVITY X (m/s²),GRAVITY Y (m/s²),GRAVITY Z (m/s²),LINEAR ACCELERATION X (m/s²),LINEAR ACCELERATION Y (m/s²),LINEAR ACCELERATION Z (m/s²),GYROSCOPE X (rad/s),GYROSCOPE Y (rad/s),GYROSCOPE Z (rad/s),Time since start in ms ,YYYY-MO-DD HH-MI-SS_SSS
1.5562,0.7095,6.0849,0.2632,0.4997,9.7904,0.0788,-1.0523,0.5871,1.2247,-2.448,0.9781,12,2021-05-19 17:28:59:397
7.2769,-0.5246,-2.1652,9.2784,3.1178,0.6004,-1.3063,-1.2008,2.958,1.3857,-4.399,0.9725,511,2021-05-19 17:28:59:896
8.8786,-4.2739,1.4952,8.8093,-4.2702,-0.5764,3.3303,4.0529,0.0298,0.5073,-1.3277,-0.1839,1012,2021-05-19 17:29:00:397
9.6329,-4.5326,0.533,6.9259,-6.9189,0.5749,2.4547,5.1524,0.156,0.534,1.9811,0.5398,1511,2021-05-19 17:29:00:896
1.512,-6.3473,-4.3678,5.0671,-6.1685,-5.696,0.2461,-0.912,2.312,-0.0038,-1.822,-0.8392,2012,2021-05-19 17:29:01:397
7.0663,-9.1627,-0.8892,5.397,-7.6331,-2.9628,0.9133,-1.2271,-1.2069,1.1502,-0.412,0.5322,2514,2021-05-19 17:29:01:899
1.9525,-6.9864,-0.3434,2.2478,-9.5328,0.4928,-0.7231,0.0063,-0.1949,0.3537,0.6302,-0.0092,3013,2021-05-19 17:29:02:398
-0.5997,-6.2587,-2.1389,1.9918,-8.2045,-4.9889,-2.4946,1.231,4.896,-1.1699,-1.446,-0.2428,3512,2021-05-19 17:29:02:897
3.6715,-9.3111,-1.8661,2.5808,-9.3782,-1.2484,4.3217,-2.2194,-2.1566,0.4887,0.8071,-0.5041,4013,2021-05-19 17:29:03:398
4.2628,-12.1313,-1.9116,3.1673,-8.6424,-3.3834,1.1556,-3.3183,2.0419,-2.6242,0.1147,-0.2439,4512,2021-05-19 17:29:03:897
-3.3505,-11.9327,-9.7594,1.4627,-7.4308,-6.2301,-4.7833,-2.4568,-1.1054,1.4833,0.4647,0.0049,5012,2021-05-19 17:29:04:397
4.4399,-14.377,0.9135,3.0017,-9.3313,-0.2959,1.2601,2.356,-1.6194,0.5853,0.2737,-0.0469,5512,2021-05-19 17:29:04:897
-0.0993,-5.3776,-2.7829,2.1509,-9.232,-2.5127,-3.1097,1.0233,0.4563,-2.3081,-1.8606,-0.7019,6012,2021-05-19 17:29:05:397
1.0235,-4.4127,-6.4149,1.5646,-8.0814,-5.3304,0.8265,1.4722,-1.4097,-0.83,-0.8512,0.3057,6513,2021-05-19 17:29:05:898
1.0235,-4.4127,-6.4149,1.5646,-8.0814,-5.3304,0.8265,1.4722,-1.4097,-0.83,-0.8512,0.3057,6514,2021-05-19 17:29:05:899
1.0235,-4.4127,-6.4149,1.5646,-8.0814,-5.3304,0.8265,1.4722,-1.4097,-0.83,-0.8512,0.3057,6515,2021-05-19 17:29:05:900
2.8167,-9.0431,-1.5165,2.3548,-9.4212,-1.3663,0,0,0,1.1621,1.0737,0.2986,6831,2021-05-19 17:29:06:216
4.567,-13.0508,0.6455,4.028,-8.8662,-1.1562,0.2772,-2.3586,2.0327,-1.0672,-2.0465,-0.0942,7331,2021-05-19 17:29:06:716
-1.459,-12.7705,-8.9931,2.4542,-9.315,-1.8381,-0.9255,3.384,-1.9254,1.3428,-0.6759,-0.7226,7831,2021-05-19 17:29:07:216
3.7193,-9.1819,-0.6906,2.5938,-9.4243,0.7905,0.1328,0.2787,-2.3546,0.5624,-0.2915,-0.1567,8331,2021-05-19 17:29:07:716
2.0315,-7.5921,0.7101,3.1932,-8.1425,-4.4356,-1.0482,0.8586,5.2039,-0.2767,-3.2427,-1.2151,8831,2021-05-19 17:29:08:216
5.4742,-9.3733,-2.0192,2.5316,-9.2072,-2.2336,5.1647,-4.3538,-1.3746,1.9914,-0.4128,-0.0385,9439,2021-05-19 17:29:08:824
0.2025,-16.5556,-4.1907,0.7518,-8.3179,-5.1399,0,0,0,0.2963,0.2685,-0.1538,9600,2021-05-19 17:29:08:985
0.6814,-9.7062,-4.5903,0.7067,-3.7917,-9.0163,0,0,0,0.7278,-0.6915,-1.3924,10080,2021-05-19 17:29:09:465
5.8214,-8.7293,-0.8988,2.7048,-9.4208,-0.321,2.6304,0.7852,0.0615,0.693,0.6654,-0.3887,10729,2021-05-19 17:29:10:114
1.0929,-4.1327,-5.5576,1.3035,-8.4903,-4.7314,0.011,2.0853,-1.1954,-0.3861,-1.6252,0.0154,11080,2021-05-19 17:29:10:465
2.0865,-7.7213,-3.6927,1.8303,-9.5972,-0.8453,0.3416,0.3676,-0.9859,1.776,0.3777,0.0362,11581,2021-05-19 17:29:10:966
2.9151,-11.2528,-4.7844,3.0093,-9.1495,-1.8442,-0.2509,-0.4439,-0.1043,-0.1387,-0.159,0.3401,12081,2021-05-19 17:29:11:466
3.973,-4.523,-10.3938,1.7099,-6.8925,-6.7632,0.5333,3.1686,-0.4522,0.4138,-0.0628,-1.007,12581,2021-05-19 17:29:11:966
3.1878,-8.7867,-0.4463,2.9366,-9.3533,0.2512,0.8224,0.4586,-1.8844,0.5111,0.4418,-0.0985,13081,2021-05-19 17:29:12:466
-2.0695,-6.9673,-1.2218,3.5121,-9.0497,-1.3924,-0.5,0.6069,5.3225,-1.3365,-2.2838,-0.0941,13580,2021-05-19 17:29:12:965
2.3883,-10.2377,7.5691,1.6732,-9.323,-2.5401,-3.1483,-4.1184,-7.2033,-0.2837,-0.0266,-0.0324,14081,2021-05-19 17:29:13:466
1.4928,-9.9311,0.7244,2.125,-9.5539,0.6153,1.1725,-0.5383,-3.0782,0.1032,-0.7319,-0.0539,14581,2021-05-19 17:29:13:966
2.2995,-4.2021,-5.1194,1.3824,-6.7706,-6.9584,-1.0919,1.9575,2.6137,-0.7698,-2.0334,-0.8862,15081,2021-05-19 17:29:14:466
0.8273,-7.7357,-1.806,2.3734,-9.2378,-2.2803,-0.0758,0.616,0.4683,1.85,0.1161,-0.0466,15581,2021-05-19 17:29:14:966
2.2804,-9.8952,2.8433,2.7281,-9.3715,-0.9498,-1.057,-1.9919,-2.1124,-1.0919,-0.4384,0.2766,16081,2021-05-19 17:29:15:466
1.1937,-6.352,-8.9931,0.911,-6.8043,-7.003,-0.4985,1.5142,-0.6074,-0.0189,-0.106,-0.5226,16581,2021-05-19 17:29:15:966
2.0722,-6.2133,-2.091,2.8433,-8.9572,-2.8026,0.7153,0.0658,0.2631,1.5146,2.5535,0.4146,17271,2021-05-19 17:29:16:656
2.1846,-7.4486,-3.5444,2.9679,-8.6837,-3.4575,0,0,0,1.2171,0.8862,0.6794,17695,2021-05-19 17:29:17:080
5.5675,-10.5177,-4.5664,2.1951,-9.5134,-0.9205,0,0,0,-0.6046,-2.3344,-0.6385,18054,2021-05-19 17:29:17:439
2.4864,-4.9753,-6.7881,2.8687,-6.6998,-6.5615,-0.4665,0.6281,-0.6133,0.0299,-1.1695,-1.5894,18601,2021-05-19 17:29:17:986
4.2676,-8.9856,-1.4375,2.9186,-9.3578,-0.2876,0.2216,0.6247,-2.7364,0.5391,0.5548,-0.1507,19055,2021-05-19 17:29:18:440
3.1065,-8.1308,-3.1995,2.6855,-9.1922,-2.1121,-0.8623,-0.2225,-0.6954,-0.4346,-0.4277,-1.0508,19554,2021-05-19 17:29:18:939
0.1475,-3.8572,-6.8097,1.6564,-6.8672,-6.802,-1.8464,3.2043,-0.8437,-0.2338,-0.768,-0.0541,20054,2021-05-19 17:29:19:439
4.3968,-9.8689,-2.881,2.9863,-9.2605,-1.2228,-0.182,0.8542,-2.4552,1.1398,0.5875,-0.5565,20554,2021-05-19 17:29:19:939
4.0977,-8.988,-1.0113,3.7467,-8.7216,-2.4631,0,0,0,-1.3799,-0.7581,-0.357,21054,2021-05-19 17:29:20:439
4.0977,-8.988,-1.0113,3.7467,-8.7216,-2.4631,0,0,0,-1.3799,-0.7581,-0.357,21055,2021-05-19 17:29:20:440
4.0977,-8.988,-1.0113,3.7467,-8.7216,-2.4631,0,0,0,-1.3799,-0.7581,-0.357,21055,2021-05-19 17:29:20:440
4.0977,-8.988,-1.0113,3.7467,-8.7216,-2.4631,0,0,0,-1.3799,-0.7581,-0.357,21390,2021-05-19 17:29:20:775
4.0977,-8.988,-1.0113,3.7467,-8.7216,-2.4631,0,0,0,-1.3799,-0.7581,-0.357,21390,2021-05-19 17:29:20:775
2.7305,-9.3015,-0.1158,3.9375,-8.973,0.3902,0.3026,-0.134,-1.4051,0.474,-0.2798,-0.1332,21636,2021-05-19 17:29:21:021
5.6803,-12.5886,3.4944,4.7063,-8.5794,0.6437,0,0,0,-0.2729,0.4656,0.0913,22136,2021-05-19 17:29:21:521
2.065,-9.8545,-3.1564,-2.2382,-9.1349,-2.7776,0,0,0,-0.8847,-1.9309,0.1381,22636,2021-05-19 17:29:22:021
1.3134,-6.1798,5.1535,1.6807,-9.3571,-2.4064,-0.0863,1.9538,7.7007,0.8385,0.5463,0.0699,23139,2021-05-19 17:29:22:524
2.5726,-8.6216,1.1004,2.5894,-9.4453,-0.5011,-0.9286,0.0967,-0.8473,0.3628,0.3887,0.1301,23637,2021-05-19 17:29:23:022
3.0586,-10.8434,-2.17,2.1818,-8.9889,-3.2573,0.0917,-0.3285,1.991,-0.5154,-2.0063,-0.1897,24136,2021-05-19 17:29:23:521
3.3314,-9.1579,-3.5013,1.9129,-7.1839,-6.3955,-1.7784,1.2593,-1.2993,0.77,-0.3464,-0.9754,24636,2021-05-19 17:29:24:021
4.8852,-11.4754,-1.162,3.2507,-9.1929,-1.0458,0.6839,-0.776,-0.8673,1.1401,0.4905,-0.1011,25136,2021-05-19 17:29:24:521
5.2253,-11.0898,-3.1732,3.1333,-9.2235,-1.131,0.825,-1.5742,-0.9472,-1.5419,-0.509,0.1052,25636,2021-05-19 17:29:25:021
1.8951,-9.2393,-5.2059,2.1476,-7.5218,-5.9145,-3.3469,-4.7622,-0.197,0.9396,0.215,-0.0457,26136,2021-05-19 17:29:25:521
4.538,-8.8609,-2.0958,3.1317,-9.2709,-0.6429,0.2221,0.3353,-1.9471,0.1411,0.5484,0.1216,26636,2021-05-19 17:29:26:021
0.6694,-5.7846,-2.4742,3.2925,-8.5177,-3.5746,0.6598,-1.6911,3.9015,-1.6858,0.3862,-0.5488,27136,2021-05-19 17:29:26:521
3.5279,-9.4905,-1.0065,2.2623,-8.3613,-4.5979,0.983,-7.867,-1.3796,1.4436,2.3147,-0.2072,27636,2021-05-19 17:29:27:021
5.2636,-10.9893,0.0063,2.886,-9.3666,0.3302,1.1637,-0.72,-1.5281,0.1779,0.8805,0.2173,28137,2021-05-19 17:29:27:522
0.1164,-5.7153,-2.1676,2.3084,-8.9202,-3.3573,0.3867,0.0117,1.3209,-0.3977,-1.5213,-0.1052,28637,2021-05-19 17:29:28:022
3.0132,-6.6727,6.772,0.9777,-9.5013,-2.2227,-1.2054,-0.6047,0.7229,0.5394,-0.2422,-0.1652,29136,2021-05-19 17:29:28:521
4.2245,-10.0125,1.5936,2.7363,-9.3738,0.9033,1.4183,0.0741,-0.7668,0.3738,3.00E-04,0.0973,29637,2021-05-19 17:29:29:022
1.3277,-10.13,-2.1269,2.8302,-8.9651,-2.7904,-1.1351,-1.1822,1.4352,-0.5365,-0.8182,-0.4884,30137,2021-05-19 17:29:29:522
3.8892,-11.3581,-4.7079,2.4544,-9.0105,-2.9929,-1.9142,1.8249,1.5047,1.1405,0.3291,0.3372,30637,2021-05-19 17:29:30:022
3.7744,-9.7708,-0.6233,2.8533,-9.3815,0.13,0.8632,-1.643,1.0162,0.1205,0.3425,0.1588,31136,2021-05-19 17:29:30:521
0.8489,-5.7846,-3.8435,1.1162,-6.6843,-7.0883,-0.3584,1.7503,3.0864,-1.6975,-2.4237,-0.8837,31637,2021-05-19 17:29:31:022
2.9055,-8.9689,-2.1269,2.4196,-8.9324,-3.2447,1.7257,-1.2294,1.6679,1.5833,2.2381,-0.0037,32137,2021-05-19 17:29:31:522
1.4545,-11.9447,-3.0081,2.1567,-9.4897,1.2101,2.7044,1.0256,-2.1225,0.4942,-1.4082,-0.184,32636,2021-05-19 17:29:32:021
-1.9068,-3.5079,-4.7079,-0.2385,-6.6393,-7.2134,-0.4785,3.034,2.1675,-0.7009,-2.4635,-0.9644,33136,2021-05-19 17:29:32:521
1.0666,-5.4589,-2.2633,2.6635,-8.8942,-3.1575,-1.4144,3.0276,-0.174,1.6065,0.314,0.2399,33636,2021-05-19 17:29:33:021
5.0264,-13.3618,-3.5731,2.6771,-9.4306,0.2588,1.6287,-2.6764,0.2991,-0.337,-0.5673,0.2282,34137,2021-05-19 17:29:33:522
-0.4032,-6.9673,-12.4573,2.1429,-6.6852,-6.8473,-0.5301,1.8187,3.176,0.8877,-0.6658,-0.1756,34637,2021-05-19 17:29:34:022
3.7696,-10.3238,-1.3035,2.8132,-8.6189,-3.7377,-0.5209,0.6397,-0.0423,1.5731,2.1529,0.0472,35219,2021-05-19 17:29:34:604
2.0578,-8.4278,-1.9211,2.8132,-8.6189,-3.7377,-0.5209,0.6397,-0.0423,1.5731,2.1529,0.0472,35220,2021-05-19 17:29:34:605
2.0578,-8.4278,-1.9211,2.8132,-8.6189,-3.7377,-0.5209,0.6397,-0.0423,1.5731,2.1529,0.0472,35228,2021-05-19 17:29:34:613
2.0578,-8.4278,-1.9211,2.8132,-8.6189,-3.7377,-0.5209,0.6397,-0.0423,1.5731,2.1529,0.0472,35228,2021-05-19 17:29:34:613
2.0578,-8.4278,-1.9211,2.8132,-8.6189,-3.7377,-0.5209,0.6397,-0.0423,1.5731,2.1529,0.0472,35229,2021-05-19 17:29:34:614
2.0578,-8.4278,-1.9211,2.8132,-8.6189,-3.7377,-0.5209,0.6397,-0.0423,1.5731,2.1529,0.0472,35229,2021-05-19 17:29:34:614
2.4362,-9.0526,-0.6664,3.225,-9.1309,-1.5478,0,0,0,-0.5098,-1.1119,-0.0057,35324,2021-05-19 17:29:34:709
3.4442,-10.5799,-2.6967,3.5012,-8.6786,-2.9316,-1.012,-0.8324,1.4702,-1.7968,-0.5852,-0.9322,35823,2021-05-19 17:29:35:208
0.6837,-6.9218,-0.8509,2.0258,-9.4706,-1.5408,-3.2536,-2.2878,1.6714,0.1112,0.3882,0.748,36323,2021-05-19 17:29:35:708
3.5734,-9.3589,-1.028,2.5522,-9.4645,0.2835,0.1748,0.3816,-0.6303,0.7281,-0.378,0.0875,36867,2021-05-19 17:29:36:252
0.425,-9.6918,-3.9344,4.3139,-8.6305,-1.7536,-0.0961,-0.7739,0.6471,-0.5815,-2.1346,-0.8828,37323,2021-05-19 17:29:36:708
0.9302,-5.3776,-5.4523,2.2967,-7.8244,-5.4475,-3.4531,2.4206,0.0199,-0.624,-1.6436,-0.5467,37859,2021-05-19 17:29:37:244
4.2772,-9.0503,-1.9355,3.6958,-9.0523,-0.7534,-1.5722,-0.3445,-0.6932,0.3355,-0.8198,-1.2527,38025,2021-05-19 17:29:37:410
4.5574,-10.2568,0.9087,3.5635,-8.6598,-2.9119,0.0885,-0.0337,1.1942,-1.3941,-0.0738,-0.5878,38526,2021-05-19 17:29:37:911
-1.9283,-7.774,-2.1676,2.0717,-4.6769,-8.3669,-0.615,0.3348,-1.2756,0.6009,-0.3404,-0.1139,39026,2021-05-19 17:29:38:411
3.8438,-8.77,-1.5045,3.3078,-8.7794,-2.8552,0,0,0,0.9108,0.7567,0.1035,39526,2021-05-19 17:29:38:911
3.4152,-8.7963,-0.3218,3.1812,-8.9131,-2.5705,-0.3869,-0.9991,0.5245,-1.5461,-0.3355,-0.2129,40026,2021-05-19 17:29:39:411
-0.1567,-4.427,-5.3614,1.511,-7.1303,-6.561,-1.1063,1.0169,-0.3872,0.1081,-0.6304,-0.2566,40525,2021-05-19 17:29:39:910
3.3673,-8.9737,-2.3375,2.5832,-9.2937,-1.7679,-0.2732,0.6978,-0.8198,1.0178,0.5308,-0.3972,41027,2021-05-19 17:29:40:412
2.9462,-10.9774,-1.794,2.6766,-9.4338,-0.1026,-0.8494,-3.1376,-1.1242,-0.5742,-0.8602,0.2715,41526,2021-05-19 17:29:40:911
0.8441,-5.5044,-2.6177,2.6866,-8.0443,-4.9237,-2.0326,0.0997,2.7407,-1.403,-1.196,-0.45,42199,2021-05-19 17:29:41:584
0.8441,-5.5044,-2.6177,2.6866,-8.0443,-4.9237,-2.0326,0.0997,2.7407,-1.403,-1.196,-0.45,42200,2021-05-19 17:29:41:585
0.8441,-5.5044,-2.6177,2.6866,-8.0443,-4.9237,-2.0326,0.0997,2.7407,-1.403,-1.196,-0.45,42200,2021-05-19 17:29:41:585
0.8321,-5.7703,-3.1277,1.4367,-8.8409,-3.9932,0,0,0,-1.0033,-0.8564,-1.1869,42262,2021-05-19 17:29:41:647
0.8321,-5.7703,-3.1277,1.4367,-8.8409,-3.9932,0,0,0,-1.0033,-0.8564,-1.1869,42263,2021-05-19 17:29:41:648
0.8321,-5.7703,-3.1277,1.4367,-8.8409,-3.9932,0,0,0,-1.0033,-0.8564,-1.1869,42263,2021-05-19 17:29:41:648
0.8321,-5.7703,-3.1277,1.4367,-8.8409,-3.9932,0,0,0,-1.0033,-0.8564,-1.1869,42264,2021-05-19 17:29:41:649
0.8321,-5.7703,-3.1277,1.4367,-8.8409,-3.9932,0,0,0,-1.0033,-0.8564,-1.1869,42264,2021-05-19 17:29:41:649
0.8321,-5.7703,-3.1277,1.4367,-8.8409,-3.9932,0,0,0,-1.0033,-0.8564,-1.1869,42265,2021-05-19 17:29:41:650
2.9079,-9.9598,-4.672,5.0001,-8.3014,-1.5019,0,0,0,-1.0033,-0.8564,-1.1869,42582,2021-05-19 17:29:41:967
2.9079,-9.9598,-4.672,5.0001,-8.3014,-1.5019,0,0,0,-1.0033,-0.8564,-1.1869,42583,2021-05-19 17:29:41:968
2.9079,-9.9598,-4.672,5.0001,-8.3014,-1.5019,0,0,0,-1.0033,-0.8564,-1.1869,42583,2021-05-19 17:29:41:968
2.9079,-9.9598,-4.672,5.0001,-8.3014,-1.5019,0,0,0,-1.0033,-0.8564,-1.1869,42583,2021-05-19 17:29:41:968
2.9079,-9.9598,-4.672,5.0001,-8.3014,-1.5019,0,0,0,-1.0033,-0.8564,-1.1869,42583,2021-05-19 17:29:41:968
2.9079,-9.9598,-4.672,5.0001,-8.3014,-1.5019,0,0,0,-1.0033,-0.8564,-1.1869,42584,2021-05-19 17:29:41:969
2.9079,-9.9598,-4.672,5.0001,-8.3014,-1.5019,0,0,0,-1.0033,-0.8564,-1.1869,42584,2021-05-19 17:29:41:969
2.9079,-9.9598,-4.672,5.0001,-8.3014,-1.5019,0,0,0,-1.0033,-0.8564,-1.1869,42584,2021-05-19 17:29:41:969
5.9985,-9.6296,0.5904,3.8685,-8.9943,-0.554,2.1336,-0.9237,1.0962,0.7284,0.1694,0.2676,42944,2021-05-19 17:29:42:329
1.7321,-8.7867,-3.367,2.6227,-9.349,-1.3744,0,0,0,-0.8114,-1.8159,-0.0279,43444,2021-05-19 17:29:42:829
1.7082,-6.8309,3.7457,4.4926,-7.4286,4.561,0,0,0,0.2969,0.31,-0.2756,43944,2021-05-19 17:29:43:329
3.5662,-8.6264,0.6096,2.6301,-9.4147,0.7851,1.174,0.2932,-1.2711,0.4962,0.3239,0.2196,44445,2021-05-19 17:29:43:830
5.3952,-10.0917,2.9031,2.1768,-9.4776,-1.2675,0,0,0,-2.2227,-0.9919,-0.4548,44944,2021-05-19 17:29:44:329
-0.2453,-6.8477,0.6766,1.4694,-9.6478,-0.9654,-4.541,-5.9094,2.5989,-0.272,-0.9146,2.7345,45444,2021-05-19 17:29:44:829
4.3944,-16.4073,0.6096,2.2967,-9.3961,-1.6153,-0.8551,-2.5016,-0.4106,-2.1635,-2.603,0.1639,45945,2021-05-19 17:29:45:330
-5.747,-10.0723,-6.7379,1.2036,-7.1451,-6.6083,0.0762,3.4223,2.0529,-0.0426,-2.0031,-0.9468,46445,2021-05-19 17:29:45:830
2.3907,-8.4159,-2.4455,2.6858,-9.084,-2.5374,-0.5441,-0.0118,0.8702,1.233,0.4717,0.3769,47150,2021-05-19 17:29:46:535
2.3907,-8.4159,-2.4455,2.6858,-9.084,-2.5374,-0.5441,-0.0118,0.8702,1.233,0.4717,0.3769,47151,2021-05-19 17:29:46:536
2.3907,-8.4159,-2.4455,2.6858,-9.084,-2.5374,-0.5441,-0.0118,0.8702,1.233,0.4717,0.3769,47152,2021-05-19 17:29:46:537
2.3907,-8.4159,-2.4455,2.6858,-9.084,-2.5374,-0.5441,-0.0118,0.8702,1.233,0.4717,0.3769,47152,2021-05-19 17:29:46:537
2.3907,-8.4159,-2.4455,2.6858,-9.084,-2.5374,-0.5441,-0.0118,0.8702,1.233,0.4717,0.3769,47153,2021-05-19 17:29:46:538
2.3907,-8.4159,-2.4455,2.6858,-9.084,-2.5374,-0.5441,-0.0118,0.8702,1.233,0.4717,0.3769,47153,2021-05-19 17:29:46:538
2.3907,-8.4159,-2.4455,2.6858,-9.084,-2.5374,-0.5441,-0.0118,0.8702,1.233,0.4717,0.3769,47154,2021-05-19 17:29:46:539
2.3907,-8.4159,-2.4455,2.6858,-9.084,-2.5374,-0.5441,-0.0118,0.8702,1.233,0.4717,0.3769,47154,2021-05-19 17:29:46:539
2.8047,-7.8987,-2.182,2.2368,-9.2036,-2.542,0,0,0,1.2614,1.6804,0.0647,47441,2021-05-19 17:29:46:826
1.5742,-8.7628,1.4976,2.2198,-9.4445,-1.4296,2.3928,0.8265,4.1349,1.0412,0.4833,-0.6431,47887,2021-05-19 17:29:47:272
3.717,-9.1173,-0.1205,2.8672,-9.3752,0.2328,0.1019,0.4858,-0.5162,0.3654,0.0567,-0.0086,48387,2021-05-19 17:29:47:772
3.4346,-10.3502,-2.3375,3.2384,-8.1512,-4.3864,-0.6159,-1.5667,1.69,-1.0613,-1.2909,-0.3506,48886,2021-05-19 17:29:48:271
-0.9921,-1.9397,-4.485,2.5857,-7.5976,-5.6358,0.6925,-8.9955,0.236,0.7674,0.2672,-0.5094,49387,2021-05-19 17:29:48:772
2.8959,-8.8801,-1.1788,3.3271,-9.1316,-1.3093,0.2272,-0.1263,-0.868,0.5922,0.412,-0.1319,49886,2021-05-19 17:29:49:271
2.1344,-10.9511,-1.8757,3.1498,-9.2714,-0.5379,-0.8167,-1.5089,0.47,-0.8822,-0.3961,0.1498,50387,2021-05-19 17:29:49:772
1.9789,-8.4541,-2.4024,3.5232,-8.3595,-3.7252,-1.8144,0.2291,-0.0647,-0.9199,-1.5126,-0.4911,51059,2021-05-19 17:29:50:444
1.9789,-8.4541,-2.4024,3.5232,-8.3595,-3.7252,-1.8144,0.2291,-0.0647,-0.9199,-1.5126,-0.4911,51060,2021-05-19 17:29:50:445
1.9789,-8.4541,-2.4024,3.5232,-8.3595,-3.7252,-1.8144,0.2291,-0.0647,-0.9199,-1.5126,-0.4911,51060,2021-05-19 17:29:50:445
1.9789,-8.4541,-2.4024,3.5232,-8.3595,-3.7252,-1.8144,0.2291,-0.0647,-0.9199,-1.5126,-0.4911,51061,2021-05-19 17:29:50:446
1.9789,-8.4541,-2.4024,3.5232,-8.3595,-3.7252,-1.8144,0.2291,-0.0647,-0.9199,-1.5126,-0.4911,51061,2021-05-19 17:29:50:446
1.9789,-8.4541,-2.4024,3.5232,-8.3595,-3.7252,-1.8144,0.2291,-0.0647,-0.9199,-1.5126,-0.4911,51062,2021-05-19 17:29:50:447
1.9789,-8.4541,-2.4024,3.5232,-8.3595,-3.7252,-1.8144,0.2291,-0.0647,-0.9199,-1.5126,-0.4911,51062,2021-05-19 17:29:50:447
1.9789,-8.4541,-2.4024,3.5232,-8.3595,-3.7252,-1.8144,0.2291,-0.0647,-0.9199,-1.5126,-0.4911,51063,2021-05-19 17:29:50:448
1.9789,-8.4541,-2.4024,3.5232,-8.3595,-3.7252,-1.8144,0.2291,-0.0647,-0.9199,-1.5126,-0.4911,51063,2021-05-19 17:29:50:448
1.9789,-8.4541,-2.4024,3.5232,-8.3595,-3.7252,-1.8144,0.2291,-0.0647,-0.9199,-1.5126,-0.4911,51070,2021-05-19 17:29:50:455
1.9789,-8.4541,-2.4024,3.5232,-8.3595,-3.7252,-1.8144,0.2291,-0.0647,-0.9199,-1.5126,-0.4911,51070,2021-05-19 17:29:50:455
1.9789,-8.4541,-2.4024,3.5232,-8.3595,-3.7252,-1.8144,0.2291,-0.0647,-0.9199,-1.5126,-0.4911,51070,2021-05-19 17:29:50:455
1.9789,-8.4541,-2.4024,3.5232,-8.3595,-3.7252,-1.8144,0.2291,-0.0647,-0.9199,-1.5126,-0.4911,51071,2021-05-19 17:29:50:456
1.9789,-8.4541,-2.4024,3.5232,-8.3595,-3.7252,-1.8144,0.2291,-0.0647,-0.9199,-1.5126,-0.4911,51071,2021-05-19 17:29:50:456
1.9789,-8.4541,-2.4024,3.5232,-8.3595,-3.7252,-1.8144,0.2291,-0.0647,-0.9199,-1.5126,-0.4911,51071,2021-05-19 17:29:50:456
1.9789,-8.4541,-2.4024,3.5232,-8.3595,-3.7252,-1.8144,0.2291,-0.0647,-0.9199,-1.5126,-0.4911,51071,2021-05-19 17:29:50:456
1.9789,-8.4541,-2.4024,3.5232,-8.3595,-3.7252,-1.8144,0.2291,-0.0647,-0.9199,-1.5126,-0.4911,51071,2021-05-19 17:29:50:456
1.9789,-8.4541,-2.4024,3.5232,-8.3595,-3.7252,-1.8144,0.2291,-0.0647,-0.9199,-1.5126,-0.4911,51072,2021-05-19 17:29:50:457
2.2397,-7.0247,-2.7374,2.3967,-8.8192,-3.5565,0,0,0,0.0235,-0.4578,1.299,51248,2021-05-19 17:29:50:633
1.5814,-9.0191,-2.2059,3.2893,-9.1176,-1.4901,0.4733,0.3689,-0.0996,1.0931,0.3011,0.4833,51814,2021-05-19 17:29:51:199
1.5814,-9.0191,-2.2059,3.2893,-9.1176,-1.4901,0.4733,0.3689,-0.0996,1.0931,0.3011,0.4833,51815,2021-05-19 17:29:51:200
1.5814,-9.0191,-2.2059,3.2893,-9.1176,-1.4901,0.4733,0.3689,-0.0996,1.0931,0.3011,0.4833,51815,2021-05-19 17:29:51:200
1.5814,-9.0191,-2.2059,3.2893,-9.1176,-1.4901,0.4733,0.3689,-0.0996,1.0931,0.3011,0.4833,51816,2021-05-19 17:29:51:201
1.5814,-9.0191,-2.2059,3.2893,-9.1176,-1.4901,0.4733,0.3689,-0.0996,1.0931,0.3011,0.4833,51816,2021-05-19 17:29:51:201
1.5814,-9.0191,-2.2059,3.2893,-9.1176,-1.4901,0.4733,0.3689,-0.0996,1.0931,0.3011,0.4833,51816,2021-05-19 17:29:51:201
3.705,-9.1986,-1.1979,1.9159,-9.3628,-2.1994,0,0,0,-0.7772,-1.3028,0.1518,51876,2021-05-19 17:29:51:261
4.1719,-10.3071,-1.8111,2.873,-9.3294,-0.9372,-1.3623,-2.2157,0.4066,0.0249,0.097,0.1101,52377,2021-05-19 17:29:51:762
1.5359,-8.0542,-3.6568,1.9471,-8.5197,-4.449,-0.6218,0.2761,1.2552,-0.3951,-1.322,0.3207,52877,2021-05-19 17:29:52:262
12.6661,-18.1119,2.9749,6.5777,-6.992,2.0038,0,0,0,0.2659,-0.0206,-0.8373,53377,2021-05-19 17:29:52:762
3.4753,-10.1157,-1.162,2.8563,-9.3792,-0.2087,1.1404,0.0141,-0.4933,0.8436,-0.1072,0.2602,54119,2021-05-19 17:29:53:504
3.4753,-10.1157,-1.162,2.8563,-9.3792,-0.2087,1.1404,0.0141,-0.4933,0.8436,-0.1072,0.2602,54119,2021-05-19 17:29:53:504
3.4753,-10.1157,-1.162,2.8563,-9.3792,-0.2087,1.1404,0.0141,-0.4933,0.8436,-0.1072,0.2602,54119,2021-05-19 17:29:53:504
3.4753,-10.1157,-1.162,2.8563,-9.3792,-0.2087,1.1404,0.0141,-0.4933,0.8436,-0.1072,0.2602,54119,2021-05-19 17:29:53:504
3.4753,-10.1157,-1.162,2.8563,-9.3792,-0.2087,1.1404,0.0141,-0.4933,0.8436,-0.1072,0.2602,54119,2021-05-19 17:29:53:504
2.0124,-3.8333,-3.3957,1.9269,-8.9845,-3.4258,0.5774,1.2761,-1.6264,1.8057,-0.4555,0.4754,54631,2021-05-19 17:29:54:016
3.1759,-9.3254,-0.1591,2.8414,-9.3567,0.7404,-0.3839,-0.3554,-1.5698,0.6965,-0.7739,-0.2179,55127,2021-05-19 17:29:54:512
3.1926,-9.9359,2.5487,3.1494,-8.892,-2.6804,-0.0552,-1.0118,1.9996,-2.0011,-1.4115,-0.1611,55598,2021-05-19 17:29:54:983
1.919,-7.7812,-4.9041,2.7551,-8.4968,-4.0478,0,0,0,-0.7052,-1.8047,-1.1557,56099,2021-05-19 17:29:55:484
1.6268,-7.8386,-1.9714,2.7157,-8.8729,-3.1727,-0.582,1.4827,0.2197,1.3303,1.1409,0.0936,56599,2021-05-19 17:29:55:984
4.4279,-9.5985,-1.3298,3.1028,-9.3023,-0.0997,1.1732,-1.3865,-0.7071,0.3454,0.6356,0.047,57099,2021-05-19 17:29:56:484
2.132,-4.3911,-4.7653,1.4616,-6.673,-7.036,-1.2481,0.8494,4.3461,-1.601,-2.605,-0.401,57599,2021-05-19 17:29:56:984
3.1304,-8.0064,-4.5568,2.0533,-9.527,-1.0909,-0.1712,2.5933,-0.739,1.5638,0.8118,0.6023,58099,2021-05-19 17:29:57:484
4.0666,-9.8115,-0.4941,2.7673,-9.3649,-0.9008,1.2569,-3.7024,-2.0368,-0.9667,-0.6884,0.1503,58599,2021-05-19 17:29:57:984
0.2934,-4.9992,-6.003,1.4366,-6.7709,-6.947,-1.3342,1.3427,2.547,-0.4383,-1.0074,-0.024,59098,2021-05-19 17:29:58:483
2.2636,-7.9801,-3.4172,2.6534,-8.7916,-3.4406,0.5165,-2.0308,0.7559,0.9596,2.5449,0.3993,59599,2021-05-19 17:29:58:984
3.5901,-11.3007,2.9701,2.2295,-9.5198,0.7566,3.2868,0.5972,-1.7554,0.1483,-0.928,-0.3341,60099,2021-05-19 17:29:59:484
-1.3968,-5.4326,-2.2274,1.941,-8.6868,-4.116,-3.9746,1.7853,2.7522,1.3289,-0.1703,-0.1645,60598,2021-05-19 17:29:59:983
3.4968,-5.4159,8.3115,2.0095,-9.5214,-1.2148,2.0565,2.5607,6.3536,0.4888,-0.3137,0.037,61205,2021-05-19 17:30:00:590
3.4968,-5.4159,8.3115,2.0095,-9.5214,-1.2148,2.0565,2.5607,6.3536,0.4888,-0.3137,0.037,61205,2021-05-19 17:30:00:590
3.4968,-5.4159,8.3115,2.0095,-9.5214,-1.2148,2.0565,2.5607,6.3536,0.4888,-0.3137,0.037,61219,2021-05-19 17:30:00:604
3.4968,-5.4159,8.3115,2.0095,-9.5214,-1.2148,2.0565,2.5607,6.3536,0.4888,-0.3137,0.037,61220,2021-05-19 17:30:00:605
3.4968,-5.4159,8.3115,2.0095,-9.5214,-1.2148,2.0565,2.5607,6.3536,0.4888,-0.3137,0.037,61220,2021-05-19 17:30:00:605
3.4968,-5.4159,8.3115,2.0095,-9.5214,-1.2148,2.0565,2.5607,6.3536,0.4888,-0.3137,0.037,61220,2021-05-19 17:30:00:605
3.4968,-5.4159,8.3115,2.0095,-9.5214,-1.2148,2.0565,2.5607,6.3536,0.4888,-0.3137,0.037,61220,2021-05-19 17:30:00:605
3.4968,-5.4159,8.3115,2.0095,-9.5214,-1.2148,2.0565,2.5607,6.3536,0.4888,-0.3137,0.037,61220,2021-05-19 17:30:00:605
3.4968,-5.4159,8.3115,2.0095,-9.5214,-1.2148,2.0565,2.5607,6.3536,0.4888,-0.3137,0.037,61221,2021-05-19 17:30:00:606
3.4968,-5.4159,8.3115,2.0095,-9.5214,-1.2148,2.0565,2.5607,6.3536,0.4888,-0.3137,0.037,61221,2021-05-19 17:30:00:606
4.2054,-11.1281,-1.8494,-0.0881,-9.6097,-1.9537,0,0,0,-0.0267,0.7054,0.0855,61337,2021-05-19 17:30:00:722
5.187,-9.0359,-2.7876,2.3126,-9.5291,0.1369,1.1314,0.719,-2.7549,0.9147,0.4546,0.4322,61840,2021-05-19 17:30:01:225
1.2416,-9.6847,-5.0764,1.5819,-7.4767,-6.1455,0.3727,-2.2466,4.2835,-0.9367,-2.5842,-1.1992,62338,2021-05-19 17:30:01:723
4.3848,-13.0627,-1.1022,1.0748,-9.5583,-1.9113,1.4405,-2.8629,0.5621,1.691,2.5966,0.9824,62837,2021-05-19 17:30:02:222
6.1516,-10.2377,0.7388,3.583,-9.0469,-1.2192,1.0939,-0.0812,-0.1541,0.2071,-0.0852,0.1852,63338,2021-05-19 17:30:02:723
0.1116,-12.3589,-2.3638,3.7091,-8.8377,-2.0754,-0.1943,-0.2782,3.6567,-1.208,-1.4192,0.2827,63837,2021-05-19 17:30:03:222
0.1116,-12.3589,-2.3638,3.7091,-8.8377,-2.0754,-0.1943,-0.2782,3.6567,-1.208,-1.4192,0.2827,63845,2021-05-19 17:30:03:230
0.1116,-12.3589,-2.3638,3.7091,-8.8377,-2.0754,-0.1943,-0.2782,3.6567,-1.208,-1.4192,0.2827,63846,2021-05-19 17:30:03:231
0.1116,-12.3589,-2.3638,3.7091,-8.8377,-2.0754,-0.1943,-0.2782,3.6567,-1.208,-1.4192,0.2827,63846,2021-05-19 17:30:03:231
0.1116,-12.3589,-2.3638,3.7091,-8.8377,-2.0754,-0.1943,-0.2782,3.6567,-1.208,-1.4192,0.2827,63846,2021-05-19 17:30:03:231
0.1116,-12.3589,-2.3638,3.7091,-8.8377,-2.0754,-0.1943,-0.2782,3.6567,-1.208,-1.4192,0.2827,63847,2021-05-19 17:30:03:232
0.1116,-12.3589,-2.3638,3.7091,-8.8377,-2.0754,-0.1943,-0.2782,3.6567,-1.208,-1.4192,0.2827,63847,2021-05-19 17:30:03:232
0.1116,-12.3589,-2.3638,3.7091,-8.8377,-2.0754,-0.1943,-0.2782,3.6567,-1.208,-1.4192,0.2827,63847,2021-05-19 17:30:03:232
0.1116,-12.3589,-2.3638,3.7091,-8.8377,-2.0754,-0.1943,-0.2782,3.6567,-1.208,-1.4192,0.2827,64102,2021-05-19 17:30:03:487
0.1116,-12.3589,-2.3638,3.7091,-8.8377,-2.0754,-0.1943,-0.2782,3.6567,-1.208,-1.4192,0.2827,64103,2021-05-19 17:30:03:488
0.1116,-12.3589,-2.3638,3.7091,-8.8377,-2.0754,-0.1943,-0.2782,3.6567,-1.208,-1.4192,0.2827,64103,2021-05-19 17:30:03:488
0.1116,-12.3589,-2.3638,3.7091,-8.8377,-2.0754,-0.1943,-0.2782,3.6567,-1.208,-1.4192,0.2827,64103,2021-05-19 17:30:03:488
0.1116,-12.3589,-2.3638,3.7091,-8.8377,-2.0754,-0.1943,-0.2782,3.6567,-1.208,-1.4192,0.2827,64104,2021-05-19 17:30:03:489
1.3516,-9.9574,-4.1955,3.9868,-8.8877,-1.1333,0,0,0,-1.1568,-0.7706,0.241,64503,2021-05-19 17:30:03:888
1.3516,-9.9574,-4.1955,3.9868,-8.8877,-1.1333,0,0,0,-1.1568,-0.7706,0.241,64504,2021-05-19 17:30:03:889
1.3516,-9.9574,-4.1955,3.9868,-8.8877,-1.1333,0,0,0,-1.1568,-0.7706,0.241,64504,2021-05-19 17:30:03:889
1.3516,-9.9574,-4.1955,3.9868,-8.8877,-1.1333,0,0,0,-1.1568,-0.7706,0.241,64504,2021-05-19 17:30:03:889
1.3516,-9.9574,-4.1955,3.9868,-8.8877,-1.1333,0,0,0,-1.1568,-0.7706,0.241,64504,2021-05-19 17:30:03:889
1.3516,-9.9574,-4.1955,3.9868,-8.8877,-1.1333,0,0,0,-1.1568,-0.7706,0.241,64504,2021-05-19 17:30:03:889
1.3516,-9.9574,-4.1955,3.9868,-8.8877,-1.1333,0,0,0,-1.1568,-0.7706,0.241,64505,2021-05-19 17:30:03:890
1.3516,-9.9574,-4.1955,3.9868,-8.8877,-1.1333,0,0,0,-1.1568,-0.7706,0.241,64505,2021-05-19 17:30:03:890
1.3516,-9.9574,-4.1955,3.9868,-8.8877,-1.1333,0,0,0,-1.1568,-0.7706,0.241,64505,2021-05-19 17:30:03:890
1.3516,-9.9574,-4.1955,3.9868,-8.8877,-1.1333,0,0,0,-1.1568,-0.7706,0.241,64505,2021-05-19 17:30:03:890
1.3516,-9.9574,-4.1955,3.9868,-8.8877,-1.1333,0,0,0,-1.1568,-0.7706,0.241,64505,2021-05-19 17:30:03:890
1.3516,-9.9574,-4.1955,3.9868,-8.8877,-1.1333,0,0,0,-1.1568,-0.7706,0.241,64510,2021-05-19 17:30:03:895
1.3516,-9.9574,-4.1955,3.9868,-8.8877,-1.1333,0,0,0,-1.1568,-0.7706,0.241,64510,2021-05-19 17:30:03:895
1.3516,-9.9574,-4.1955,3.9868,-8.8877,-1.1333,0,0,0,-1.1568,-0.7706,0.241,64511,2021-05-19 17:30:03:896
1.3516,-9.9574,-4.1955,3.9868,-8.8877,-1.1333,0,0,0,-1.1568,-0.7706,0.241,64511,2021-05-19 17:30:03:896
6.3553,-11.3007,1.6271,1.46,-9.2166,-3.0156,0,0,0,0.1683,-0.5221,0.286,64963,2021-05-19 17:30:04:348
6.3553,-11.3007,1.6271,1.46,-9.2166,-3.0156,0,0,0,0.1683,-0.5221,0.286,64964,2021-05-19 17:30:04:349
6.3553,-11.3007,1.6271,1.46,-9.2166,-3.0156,0,0,0,0.1683,-0.5221,0.286,64964,2021-05-19 17:30:04:349
6.3553,-11.3007,1.6271,1.46,-9.2166,-3.0156,0,0,0,0.1683,-0.5221,0.286,64964,2021-05-19 17:30:04:349
6.3553,-11.3007,1.6271,1.46,-9.2166,-3.0156,0,0,0,0.1683,-0.5221,0.286,64965,2021-05-19 17:30:04:350
6.3553,-11.3007,1.6271,1.46,-9.2166,-3.0156,0,0,0,0.1683,-0.5221,0.286,64965,2021-05-19 17:30:04:350
3.0826,-9.39,-1.6122,2.9287,-9.2041,1.6964,0,0,0,0.266,0.4381,0.2286,65048,2021-05-19 17:30:04:433
0.0733,-8.0997,-4.6624,3.8992,-8.8045,-1.857,0,0,0,1.4224,1.7076,0.7423,65548,2021-05-19 17:30:04:933
0.0733,-8.0997,-4.6624,3.8992,-8.8045,-1.857,0,0,0,1.4224,1.7076,0.7423,65550,2021-05-19 17:30:04:935
0.0733,-8.0997,-4.6624,3.8992,-8.8045,-1.857,0,0,0,1.4224,1.7076,0.7423,65551,2021-05-19 17:30:04:936
4.4375,-8.6695,-2.2705,4.497,-8.6386,-1.1495,0,0,0,0.5711,0.828,-0.3441,65982,2021-05-19 17:30:05:367
6.5109,-10.6182,-4.0086,3.7894,-8.1417,-3.9399,0,0,0,-1.519,-1.3407,-0.297,66482,2021-05-19 17:30:05:867
4.1982,-21.454,-7.4492,1.6388,-7.7913,-5.7253,-1.6482,1.9286,-2.1556,0.742,-0.2796,-0.1744,66981,2021-05-19 17:30:06:366
4.0738,-8.6551,-1.5476,4.1043,-8.6629,-2.0687,0.3384,0.2897,0.1443,0.3208,0.2333,0.038,67481,2021-05-19 17:30:06:866
1.1073,-9.4857,-0.0918,3.4776,-8.9135,-2.1508,2.8033,1.1671,1.437,-1.2412,-1.1591,-0.014,67981,2021-05-19 17:30:07:366
1.3684,-16.194,1.6582,1.6923,-9.2295,-2.8501,-3.0067,-9.3387,-4.4669,1.8057,-0.6087,-0.1037,68482,2021-05-19 17:30:07:867
3.2357,-8.6982,-0.0416,2.5619,-9.4655,-0.1116,1.0548,-0.1569,-0.6672,0.3734,0.273,0.013,68982,2021-05-19 17:30:08:367
4.8398,-10.0747,0.8106,3.4243,-8.7755,-2.7268,1.0017,-0.9038,3.0344,-1.817,-1.9352,-0.0254,69482,2021-05-19 17:30:08:867
4.349,-13.5942,-9.7164,2.9152,-8.958,-2.7252,1.778,-3.7511,-4.8706,0.1782,-0.425,0.5705,69981,2021-05-19 17:30:09:366
5.2062,-8.8513,-2.3928,2.405,-9.4946,0.488,0.0881,0.6791,-1.2792,0.7455,-0.4746,0.1616,70481,2021-05-19 17:30:09:866
-0.5183,-8.1188,-4.1524,2.5685,-7.4116,-5.8857,0.7924,-4.3501,5.462,-1.587,-3.4876,-1.6985,70984,2021-05-19 17:30:10:369
0.0227,-7.5323,-2.4359,2.6005,-9.1899,-2.2256,-1.7781,2.9927,-0.6461,1.5294,0.8778,0.0765,71481,2021-05-19 17:30:10:866
2.5295,-12.3876,-1.5428,3.084,-9.3072,0.1875,0.4931,-3.9872,-0.0838,-0.1075,-0.0545,0.3427,71981,2021-05-19 17:30:11:366
0.37,-3.1702,-2.2442,2.7455,-6.9254,-6.3775,-1.7078,0.8346,3.032,-1.9393,-2.4379,-1.4443,72609,2021-05-19 17:30:11:994
0.37,-3.1702,-2.2442,2.7455,-6.9254,-6.3775,-1.7078,0.8346,3.032,-1.9393,-2.4379,-1.4443,72610,2021-05-19 17:30:11:995
0.37,-3.1702,-2.2442,2.7455,-6.9254,-6.3775,-1.7078,0.8346,3.032,-1.9393,-2.4379,-1.4443,72610,2021-05-19 17:30:11:995
0.37,-3.1702,-2.2442,2.7455,-6.9254,-6.3775,-1.7078,0.8346,3.032,-1.9393,-2.4379,-1.4443,72610,2021-05-19 17:30:11:995
0.37,-3.1702,-2.2442,2.7455,-6.9254,-6.3775,-1.7078,0.8346,3.032,-1.9393,-2.4379,-1.4443,72611,2021-05-19 17:30:11:996
1.742,-2.5071,-4.6433,1.5117,-7.1775,-6.5092,0,0,0,-1.9712,-2.3006,-1.3799,72674,2021-05-19 17:30:12:059
2.266,-8.9542,-3.8387,0.7148,-8.8735,-4.1134,0,0,0,-0.2703,-0.9706,0.2045,73175,2021-05-19 17:30:12:560
2.266,-8.9542,-3.8387,0.7148,-8.8735,-4.1134,0,0,0,-0.2703,-0.9706,0.2045,73176,2021-05-19 17:30:12:561
2.266,-8.9542,-3.8387,0.7148,-8.8735,-4.1134,0,0,0,-0.2703,-0.9706,0.2045,73177,2021-05-19 17:30:12:562
2.266,-8.9542,-3.8387,0.7148,-8.8735,-4.1134,0,0,0,-0.2703,-0.9706,0.2045,73574,2021-05-19 17:30:12:959
2.266,-8.9542,-3.8387,0.7148,-8.8735,-4.1134,0,0,0,-0.2703,-0.9706,0.2045,73575,2021-05-19 17:30:12:960
2.266,-8.9542,-3.8387,0.7148,-8.8735,-4.1134,0,0,0,-0.2703,-0.9706,0.2045,73575,2021-05-19 17:30:12:960
6.3099,-8.7245,8.9985,0.8965,-9.5656,-1.966,2.0963,3.7877,2.5397,0.6183,0.2535,-0.4403,74045,2021-05-19 17:30:13:430
3.1759,-9.1173,-0.6114,2.6175,-9.4422,0.405,0.3477,1.1122,-1.1357,0.4464,-0.1933,0.0382,74545,2021-05-19 17:30:13:930
1.7755,-7.2784,-5.0524,3.2413,-7.7054,-5.1274,0.3179,-2.4793,2.8393,-0.8405,-3.3329,-1.3955,75044,2021-05-19 17:30:14:429
0.4322,-9.5192,-3.2593,2.6308,-8.3501,-4.4187,0.0766,-4.7187,3.823,1.4347,3.4372,1.1415,75546,2021-05-19 17:30:14:931
4.768,-7.2257,-1.3753,3.3469,-9.2179,-0.0018,1.4693,0.8874,-1.0294,0.2848,0.3998,0.2602,76045,2021-05-19 17:30:15:430
1.7515,-3.6347,-5.2777,2.2713,-6.4795,-7.002,-1.2606,2.3277,4.9573,-1.5803,-2.5475,-0.9523,76544,2021-05-19 17:30:15:929
0.4705,-6.7543,-1.8733,2.6803,-9.1247,-2.3928,0.3741,0.3015,0.9273,1.2266,0.5481,0.6313,77299,2021-05-19 17:30:16:684
0.4705,-6.7543,-1.8733,2.6803,-9.1247,-2.3928,0.3741,0.3015,0.9273,1.2266,0.5481,0.6313,77300,2021-05-19 17:30:16:685
0.4705,-6.7543,-1.8733,2.6803,-9.1247,-2.3928,0.3741,0.3015,0.9273,1.2266,0.5481,0.6313,77300,2021-05-19 17:30:16:685
0.4705,-6.7543,-1.8733,2.6803,-9.1247,-2.3928,0.3741,0.3015,0.9273,1.2266,0.5481,0.6313,77300,2021-05-19 17:30:16:685
0.4705,-6.7543,-1.8733,2.6803,-9.1247,-2.3928,0.3741,0.3015,0.9273,1.2266,0.5481,0.6313,77300,2021-05-19 17:30:16:685
0.4705,-6.7543,-1.8733,2.6803,-9.1247,-2.3928,0.3741,0.3015,0.9273,1.2266,0.5481,0.6313,77301,2021-05-19 17:30:16:686
0.4705,-6.7543,-1.8733,2.6803,-9.1247,-2.3928,0.3741,0.3015,0.9273,1.2266,0.5481,0.6313,77301,2021-05-19 17:30:16:686
0.4705,-6.7543,-1.8733,2.6803,-9.1247,-2.3928,0.3741,0.3015,0.9273,1.2266,0.5481,0.6313,77302,2021-05-19 17:30:16:687
0.4705,-6.7543,-1.8733,2.6803,-9.1247,-2.3928,0.3741,0.3015,0.9273,1.2266,0.5481,0.6313,77302,2021-05-19 17:30:16:687
0.4705,-6.7543,-1.8733,2.6803,-9.1247,-2.3928,0.3741,0.3015,0.9273,1.2266,0.5481,0.6313,77302,2021-05-19 17:30:16:687
0.4705,-6.7543,-1.8733,2.6803,-9.1247,-2.3928,0.3741,0.3015,0.9273,1.2266,0.5481,0.6313,77302,2021-05-19 17:30:16:687
0.4705,-6.7543,-1.8733,2.6803,-9.1247,-2.3928,0.3741,0.3015,0.9273,1.2266,0.5481,0.6313,77303,2021-05-19 17:30:16:688
0.4705,-6.7543,-1.8733,2.6803,-9.1247,-2.3928,0.3741,0.3015,0.9273,1.2266,0.5481,0.6313,77303,2021-05-19 17:30:16:688
0.4705,-6.7543,-1.8733,2.6803,-9.1247,-2.3928,0.3741,0.3015,0.9273,1.2266,0.5481,0.6313,77303,2021-05-19 17:30:16:688
0.4705,-6.7543,-1.8733,2.6803,-9.1247,-2.3928,0.3741,0.3015,0.9273,1.2266,0.5481,0.6313,77304,2021-05-19 17:30:16:689
0.4705,-6.7543,-1.8733,2.6803,-9.1247,-2.3928,0.3741,0.3015,0.9273,1.2266,0.5481,0.6313,77304,2021-05-19 17:30:16:689
0.4705,-6.7543,-1.8733,2.6803,-9.1247,-2.3928,0.3741,0.3015,0.9273,1.2266,0.5481,0.6313,77305,2021-05-19 17:30:16:690
0.4705,-6.7543,-1.8733,2.6803,-9.1247,-2.3928,0.3741,0.3015,0.9273,1.2266,0.5481,0.6313,77305,2021-05-19 17:30:16:690
0.4705,-6.7543,-1.8733,2.6803,-9.1247,-2.3928,0.3741,0.3015,0.9273,1.2266,0.5481,0.6313,77305,2021-05-19 17:30:16:690
2.6396,-8.9952,-2.8905,0.9269,-9.6312,-1.597,0,0,0,-0.914,-1.6943,-0.5276,77752,2021-05-19 17:30:17:137
2.6396,-8.9952,-2.8905,0.9269,-9.6312,-1.597,0,0,0,-0.914,-1.6943,-0.5276,77752,2021-05-19 17:30:17:137
2.6396,-8.9952,-2.8905,0.9269,-9.6312,-1.597,0,0,0,-0.914,-1.6943,-0.5276,77753,2021-05-19 17:30:17:138
2.6396,-8.9952,-2.8905,0.9269,-9.6312,-1.597,0,0,0,-0.914,-1.6943,-0.5276,77753,2021-05-19 17:30:17:138
2.6396,-8.9952,-2.8905,0.9269,-9.6312,-1.597,0,0,0,-0.914,-1.6943,-0.5276,77753,2021-05-19 17:30:17:138
2.6396,-8.9952,-2.8905,0.9269,-9.6312,-1.597,0,0,0,-0.914,-1.6943,-0.5276,77753,2021-05-19 17:30:17:138
2.6396,-8.9952,-2.8905,0.9269,-9.6312,-1.597,0,0,0,-0.914,-1.6943,-0.5276,77753,2021-05-19 17:30:17:138
2.6396,-8.9952,-2.8905,0.9269,-9.6312,-1.597,0,0,0,-0.914,-1.6943,-0.5276,77754,2021-05-19 17:30:17:139
4.4327,-13.1178,-0.0583,2.4128,-8.8877,-3.37,0,0,0,-0.507,-0.671,0.4264,77869,2021-05-19 17:30:17:254
1.3516,-5.653,-3.6855,3.0804,-9.2949,0.5348,0,0,0,-0.8132,-3.0608,0.0308,78369,2021-05-19 17:30:17:754
2.0004,-6.8213,-1.5691,1.8205,-9.5286,-1.4358,0.4435,3.1931,-0.5591,1.4863,1.7189,-0.1814,78869,2021-05-19 17:30:18:254
6.4534,-7.8386,-0.9826,3.1057,-9.2846,-0.5673,1.4261,0.3137,-2.0212,0.0551,0.8269,-0.0325,79369,2021-05-19 17:30:18:754
0.746,-5.3632,-4.4013,3.0026,-7.4717,-5.5972,-1.2807,0.8312,2.8946,-1.5131,-2.3453,-0.0928,79869,2021-05-19 17:30:19:254
4.5332,-10.0077,-1.5691,2.7923,-9.0837,-2.4208,1.5317,-0.7889,0.8507,1.3414,0.9186,0.4833,80369,2021-05-19 17:30:19:754
4.9307,-11.5376,-0.7839,2.8591,-9.3801,-0.0998,0.923,-3.1063,0.3948,0.1602,0.4322,0.1703,80869,2021-05-19 17:30:20:254
5.8238,-9.7301,1.2535,4.0231,-8.8881,-0.9932,0,0,0,-1.8064,-2.5804,-1.1391,81369,2021-05-19 17:30:20:754
5.8238,-9.7301,1.2535,4.0231,-8.8881,-0.9932,0,0,0,-1.8064,-2.5804,-1.1391,81370,2021-05-19 17:30:20:755
5.8238,-9.7301,1.2535,4.0231,-8.8881,-0.9932,0,0,0,-1.8064,-2.5804,-1.1391,81370,2021-05-19 17:30:20:755
5.8238,-9.7301,1.2535,4.0231,-8.8881,-0.9932,0,0,0,-1.8064,-2.5804,-1.1391,81371,2021-05-19 17:30:20:756
5.8238,-9.7301,1.2535,4.0231,-8.8881,-0.9932,0,0,0,-1.8064,-2.5804,-1.1391,81371,2021-05-19 17:30:20:756
5.8238,-9.7301,1.2535,4.0231,-8.8881,-0.9932,0,0,0,-1.8064,-2.5804,-1.1391,81372,2021-05-19 17:30:20:757
5.8238,-9.7301,1.2535,4.0231,-8.8881,-0.9932,0,0,0,-1.8064,-2.5804,-1.1391,81372,2021-05-19 17:30:20:757
5.8238,-9.7301,1.2535,4.0231,-8.8881,-0.9932,0,0,0,-1.8064,-2.5804,-1.1391,81373,2021-05-19 17:30:20:758
5.8238,-9.7301,1.2535,4.0231,-8.8881,-0.9932,0,0,0,-1.8064,-2.5804,-1.1391,81375,2021-05-19 17:30:20:760
5.8238,-9.7301,1.2535,4.0231,-8.8881,-0.9932,0,0,0,-1.8064,-2.5804,-1.1391,81375,2021-05-19 17:30:20:760
5.8238,-9.7301,1.2535,4.0231,-8.8881,-0.9932,0,0,0,-1.8064,-2.5804,-1.1391,81376,2021-05-19 17:30:20:761
5.8238,-9.7301,1.2535,4.0231,-8.8881,-0.9932,0,0,0,-1.8064,-2.5804,-1.1391,81377,2021-05-19 17:30:20:762
5.8238,-9.7301,1.2535,4.0231,-8.8881,-0.9932,0,0,0,-1.8064,-2.5804,-1.1391,81378,2021-05-19 17:30:20:763
5.8238,-9.7301,1.2535,4.0231,-8.8881,-0.9932,0,0,0,-1.8064,-2.5804,-1.1391,81378,2021-05-19 17:30:20:763
5.8238,-9.7301,1.2535,4.0231,-8.8881,-0.9932,0,0,0,-1.8064,-2.5804,-1.1391,81380,2021-05-19 17:30:20:765
5.8238,-9.7301,1.2535,4.0231,-8.8881,-0.9932,0,0,0,-1.8064,-2.5804,-1.1391,81381,2021-05-19 17:30:20:766
4.1958,-9.4618,-2.1437,2.3993,-9.182,-2.4706,1.0201,-0.0054,0.5404,1.3292,1.3872,0.4867,81466,2021-05-19 17:30:20:851
5.5771,-8.2026,-5.6079,3.0973,-9.2989,-0.3281,2.6572,0.1171,-2.2087,0.9351,0.3838,0.1489,81966,2021-05-19 17:30:21:351
2.5152,-10.1037,0.8512,2.9767,-7.7036,-5.2881,1.0935,-1.9016,3.9781,-0.58,-3.2966,-1.4911,82653,2021-05-19 17:30:22:038
2.5152,-10.1037,0.8512,2.9767,-7.7036,-5.2881,1.0935,-1.9016,3.9781,-0.58,-3.2966,-1.4911,82654,2021-05-19 17:30:22:039
2.5152,-10.1037,0.8512,2.9767,-7.7036,-5.2881,1.0935,-1.9016,3.9781,-0.58,-3.2966,-1.4911,82654,2021-05-19 17:30:22:039
2.5152,-10.1037,0.8512,2.9767,-7.7036,-5.2881,1.0935,-1.9016,3.9781,-0.58,-3.2966,-1.4911,82671,2021-05-19 17:30:22:056
0.7077,-4.3863,-6.5824,2.3435,-5.6062,-7.6973,0,0,0,-0.4354,-0.3332,0.2436,83171,2021-05-19 17:30:22:556
0.7077,-4.3863,-6.5824,2.3435,-5.6062,-7.6973,0,0,0,-0.4354,-0.3332,0.2436,83172,2021-05-19 17:30:22:557
0.7077,-4.3863,-6.5824,2.3435,-5.6062,-7.6973,0,0,0,-0.4354,-0.3332,0.2436,83172,2021-05-19 17:30:22:557
0.7077,-4.3863,-6.5824,2.3435,-5.6062,-7.6973,0,0,0,-0.4354,-0.3332,0.2436,83173,2021-05-19 17:30:22:558
0.7077,-4.3863,-6.5824,2.3435,-5.6062,-7.6973,0,0,0,-0.4354,-0.3332,0.2436,83173,2021-05-19 17:30:22:558
0.7077,-4.3863,-6.5824,2.3435,-5.6062,-7.6973,0,0,0,-0.4354,-0.3332,0.2436,83173,2021-05-19 17:30:22:558
0.7077,-4.3863,-6.5824,2.3435,-5.6062,-7.6973,0,0,0,-0.4354,-0.3332,0.2436,83173,2021-05-19 17:30:22:558
0.7077,-4.3863,-6.5824,2.3435,-5.6062,-7.6973,0,0,0,-0.4354,-0.3332,0.2436,83173,2021-05-19 17:30:22:558
0.7077,-4.3863,-6.5824,2.3435,-5.6062,-7.6973,0,0,0,-0.4354,-0.3332,0.2436,83173,2021-05-19 17:30:22:558
0.7077,-4.3863,-6.5824,2.3435,-5.6062,-7.6973,0,0,0,-0.4354,-0.3332,0.2436,83174,2021-05-19 17:30:22:559
0.7077,-4.3863,-6.5824,2.3435,-5.6062,-7.6973,0,0,0,-0.4354,-0.3332,0.2436,83174,2021-05-19 17:30:22:559
0.7077,-4.3863,-6.5824,2.3435,-5.6062,-7.6973,0,0,0,-0.4354,-0.3332,0.2436,83174,2021-05-19 17:30:22:559
0.7077,-4.3863,-6.5824,2.3435,-5.6062,-7.6973,0,0,0,-0.4354,-0.3332,0.2436,83174,2021-05-19 17:30:22:559
0.7077,-4.3863,-6.5824,2.3435,-5.6062,-7.6973,0,0,0,-0.4354,-0.3332,0.2436,83174,2021-05-19 17:30:22:559
0.7077,-4.3863,-6.5824,2.3435,-5.6062,-7.6973,0,0,0,-0.4354,-0.3332,0.2436,83175,2021-05-19 17:30:22:560
0.7077,-4.3863,-6.5824,2.3435,-5.6062,-7.6973,0,0,0,-0.4354,-0.3332,0.2436,83175,2021-05-19 17:30:22:560
0.7077,-4.3863,-6.5824,2.3435,-5.6062,-7.6973,0,0,0,-0.4354,-0.3332,0.2436,83175,2021-05-19 17:30:22:560
0.7077,-4.3863,-6.5824,2.3435,-5.6062,-7.6973,0,0,0,-0.4354,-0.3332,0.2436,83175,2021-05-19 17:30:22:560
0.7077,-4.3863,-6.5824,2.3435,-5.6062,-7.6973,0,0,0,-0.4354,-0.3332,0.2436,83175,2021-05-19 17:30:22:560
0.7077,-4.3863,-6.5824,2.3435,-5.6062,-7.6973,0,0,0,-0.4354,-0.3332,0.2436,83175,2021-05-19 17:30:22:560
0.7077,-4.3863,-6.5824,2.3435,-5.6062,-7.6973,0,0,0,-0.4354,-0.3332,0.2436,83175,2021-05-19 17:30:22:560
0.7077,-4.3863,-6.5824,2.3435,-5.6062,-7.6973,0,0,0,-0.4354,-0.3332,0.2436,83176,2021-05-19 17:30:22:561
1.1671,-8.2505,-2.613,2.3435,-5.6062,-7.6973,0,0,0,-0.4354,-0.3332,0.2436,83587,2021-05-19 17:30:22:972
1.1671,-8.2505,-2.613,2.3435,-5.6062,-7.6973,0,0,0,-0.4354,-0.3332,0.2436,83588,2021-05-19 17:30:22:973
1.1671,-8.2505,-2.613,2.3435,-5.6062,-7.6973,0,0,0,-0.4354,-0.3332,0.2436,83588,2021-05-19 17:30:22:973
1.1671,-8.2505,-2.613,2.3435,-5.6062,-7.6973,0,0,0,-0.4354,-0.3332,0.2436,83588,2021-05-19 17:30:22:973
1.1671,-8.2505,-2.613,2.3435,-5.6062,-7.6973,0,0,0,-0.4354,-0.3332,0.2436,83589,2021-05-19 17:30:22:974
1.1671,-8.2505,-2.613,2.3435,-5.6062,-7.6973,0,0,0,-0.4354,-0.3332,0.2436,83589,2021-05-19 17:30:22:974
1.1671,-8.2505,-2.613,2.3435,-5.6062,-7.6973,0,0,0,-0.4354,-0.3332,0.2436,83590,2021-05-19 17:30:22:975
1.1671,-8.2505,-2.613,2.3435,-5.6062,-7.6973,0,0,0,-0.4354,-0.3332,0.2436,83590,2021-05-19 17:30:22:975
1.1671,-8.2505,-2.613,2.3435,-5.6062,-7.6973,0,0,0,-0.4354,-0.3332,0.2436,83591,2021-05-19 17:30:22:976
0.315,-7.0128,-4.0711,0.6092,-9.7743,-0.5129,0,0,0,0.5644,-0.751,0.4478,83657,2021-05-19 17:30:23:042
-1.6002,-17.1709,2.0028,-2.732,-8.9613,-2.8985,0,0,0,-0.045,-0.4245,0.513,84156,2021-05-19 17:30:23:541
3.5088,-9.7062,-1.4112,2.645,-9.407,-0.8267,0,0,0,0.2651,-0.3062,-0.3453,84656,2021-05-19 17:30:24:041
3.6858,-10.5512,2.6973,3.1261,-9.2084,-1.2662,0.7438,-0.7635,-0.968,-2.0694,-0.383,-0.5582,85156,2021-05-19 17:30:24:541
1.8951,-10.5416,-7.7698,2.7725,-5.5462,-7.5976,-0.162,0.2041,-0.8183,0.0151,-0.9373,-0.6235,85656,2021-05-19 17:30:25:041
3.9156,-7.7213,-0.9108,3.0218,-9.3249,-0.2917,1.8042,-1.1183,-1.2531,1.6537,0.7414,-0.5855,86156,2021-05-19 17:30:25:541
5.187,-10.9008,-2.182,3.3788,-8.7708,-2.7976,1.0319,-2.0445,-0.558,-1.8069,0.2315,-0.5684,86656,2021-05-19 17:30:26:041
2.764,-13.465,-7.0038,1.2327,-7.2016,-6.5412,-1.9803,0.2095,-1.1065,0.8524,0.1478,-0.3827,87412,2021-05-19 17:30:26:797
2.764,-13.465,-7.0038,1.2327,-7.2016,-6.5412,-1.9803,0.2095,-1.1065,0.8524,0.1478,-0.3827,87415,2021-05-19 17:30:26:800
2.764,-13.465,-7.0038,1.2327,-7.2016,-6.5412,-1.9803,0.2095,-1.1065,0.8524,0.1478,-0.3827,87415,2021-05-19 17:30:26:800
2.764,-13.465,-7.0038,1.2327,-7.2016,-6.5412,-1.9803,0.2095,-1.1065,0.8524,0.1478,-0.3827,87415,2021-05-19 17:30:26:800
2.764,-13.465,-7.0038,1.2327,-7.2016,-6.5412,-1.9803,0.2095,-1.1065,0.8524,0.1478,-0.3827,87415,2021-05-19 17:30:26:800
2.764,-13.465,-7.0038,1.2327,-7.2016,-6.5412,-1.9803,0.2095,-1.1065,0.8524,0.1478,-0.3827,87415,2021-05-19 17:30:26:800
2.764,-13.465,-7.0038,1.2327,-7.2016,-6.5412,-1.9803,0.2095,-1.1065,0.8524,0.1478,-0.3827,87415,2021-05-19 17:30:26:800
2.764,-13.465,-7.0038,1.2327,-7.2016,-6.5412,-1.9803,0.2095,-1.1065,0.8524,0.1478,-0.3827,87416,2021-05-19 17:30:26:801
2.764,-13.465,-7.0038,1.2327,-7.2016,-6.5412,-1.9803,0.2095,-1.1065,0.8524,0.1478,-0.3827,87417,2021-05-19 17:30:26:802
2.764,-13.465,-7.0038,1.2327,-7.2016,-6.5412,-1.9803,0.2095,-1.1065,0.8524,0.1478,-0.3827,87417,2021-05-19 17:30:26:802
2.764,-13.465,-7.0038,1.2327,-7.2016,-6.5412,-1.9803,0.2095,-1.1065,0.8524,0.1478,-0.3827,87418,2021-05-19 17:30:26:803
2.764,-13.465,-7.0038,1.2327,-7.2016,-6.5412,-1.9803,0.2095,-1.1065,0.8524,0.1478,-0.3827,87418,2021-05-19 17:30:26:803
2.764,-13.465,-7.0038,1.2327,-7.2016,-6.5412,-1.9803,0.2095,-1.1065,0.8524,0.1478,-0.3827,87418,2021-05-19 17:30:26:803
1.9717,-9.9263,-1.4399,0.8126,-8.5372,-4.7568,0,0,0,0.3092,0.3561,-0.0412,87478,2021-05-19 17:30:26:863
6.7597,-7.3624,0.1594,3.9378,-8.5512,-2.746,0,0,0,0.2161,0.7909,0.0472,87978,2021-05-19 17:30:27:363
1.8951,-5.4015,-3.3598,2.4614,-8.2268,-4.7361,0,0,0,-1.8577,-2.1694,-0.5989,88478,2021-05-19 17:30:27:863
5.5053,-9.8665,-2.0958,2.5919,-8.8652,-3.2955,2.0493,-3.7857,0.9363,1.3181,1.7377,-0.4722,88978,2021-05-19 17:30:28:363
5.3091,-11.1927,0.5139,4.3351,-8.6492,-1.6025,1.0073,-1.5615,1.3359,0.846,0.4595,0.2592,89478,2021-05-19 17:30:28:863
0.722,-6.2396,-5.3614,3.0848,-7.3602,-5.6993,-0.6561,0.0837,1.999,-0.6333,-2.8261,-1.4873,89978,2021-05-19 17:30:29:363
8.5268,-9.0072,-1.3992,3.9991,-8.4231,-3.0379,3.6307,-4.1868,1.5547,1.5073,0.5082,-0.7764,90478,2021-05-19 17:30:29:863
5.0551,-11.0874,-0.9156,3.5773,-9.1038,0.7028,3.2631,0.5717,-1.2992,0.83,0.4755,0.4765,91106,2021-05-19 17:30:30:491
1.4186,-3.9987,-6.3861,1.5437,-8.2326,-5.1002,0.149,1.8701,-1.8831,-1.2657,-1.82,-0.0812,91478,2021-05-19 17:30:30:863
2.5845,-7.0941,-1.5332,2.4821,-9.3951,-1.3201,2.3435,-1.6996,1.049,1.6244,1.1537,0.2225,91978,2021-05-19 17:30:31:363
5.0121,-8.9375,-3.2043,2.2326,-9.4505,1.3687,1.7416,0.0342,-2.028,0.6345,0.224,0.118,92478,2021-05-19 17:30:31:863
2.7568,-11.6333,-3.5061,2.0517,-8.7113,-4.0093,0.5522,-3.3569,1.4742,-1.1489,-3.4462,-1.3484,92978,2021-05-19 17:30:32:363
2.6898,-8.0997,-8.7323,1.7008,-6.8282,-6.8304,0.0617,-3.5789,-1.1199,0.5397,-0.0774,-0.8973,93478,2021-05-19 17:30:32:863
3.3553,-9.2752,-1.914,3.7216,-8.9825,-1.2785,0.6621,-0.4409,0.5527,0.8141,0.2454,-0.0362,93978,2021-05-19 17:30:33:363
5.9172,-12.0739,-1.0998,3.4787,-9.1689,-0.0187,0.5626,0.0651,-0.4971,0.4733,0.2361,0.4142,94624,2021-05-19 17:30:34:009
5.9172,-12.0739,-1.0998,3.4787,-9.1689,-0.0187,0.5626,0.0651,-0.4971,0.4733,0.2361,0.4142,94625,2021-05-19 17:30:34:010
5.9172,-12.0739,-1.0998,3.4787,-9.1689,-0.0187,0.5626,0.0651,-0.4971,0.4733,0.2361,0.4142,94625,2021-05-19 17:30:34:010
5.9172,-12.0739,-1.0998,3.4787,-9.1689,-0.0187,0.5626,0.0651,-0.4971,0.4733,0.2361,0.4142,94625,2021-05-19 17:30:34:010
5.9172,-12.0739,-1.0998,3.4787,-9.1689,-0.0187,0.5626,0.0651,-0.4971,0.4733,0.2361,0.4142,94625,2021-05-19 17:30:34:010
5.9172,-12.0739,-1.0998,3.4787,-9.1689,-0.0187,0.5626,0.0651,-0.4971,0.4733,0.2361,0.4142,94625,2021-05-19 17:30:34:010
5.9172,-12.0739,-1.0998,3.4787,-9.1689,-0.0187,0.5626,0.0651,-0.4971,0.4733,0.2361,0.4142,94626,2021-05-19 17:30:34:011
5.9172,-12.0739,-1.0998,3.4787,-9.1689,-0.0187,0.5626,0.0651,-0.4971,0.4733,0.2361,0.4142,94626,2021-05-19 17:30:34:011
5.9172,-12.0739,-1.0998,3.4787,-9.1689,-0.0187,0.5626,0.0651,-0.4971,0.4733,0.2361,0.4142,94626,2021-05-19 17:30:34:011
5.9172,-12.0739,-1.0998,3.4787,-9.1689,-0.0187,0.5626,0.0651,-0.4971,0.4733,0.2361,0.4142,94626,2021-05-19 17:30:34:011
5.9172,-12.0739,-1.0998,3.4787,-9.1689,-0.0187,0.5626,0.0651,-0.4971,0.4733,0.2361,0.4142,94626,2021-05-19 17:30:34:011
5.9172,-12.0739,-1.0998,3.4787,-9.1689,-0.0187,0.5626,0.0651,-0.4971,0.4733,0.2361,0.4142,94634,2021-05-19 17:30:34:019
5.9172,-12.0739,-1.0998,3.4787,-9.1689,-0.0187,0.5626,0.0651,-0.4971,0.4733,0.2361,0.4142,94635,2021-05-19 17:30:34:020
5.9172,-12.0739,-1.0998,3.4787,-9.1689,-0.0187,0.5626,0.0651,-0.4971,0.4733,0.2361,0.4142,94635,2021-05-19 17:30:34:020
5.9172,-12.0739,-1.0998,3.4787,-9.1689,-0.0187,0.5626,0.0651,-0.4971,0.4733,0.2361,0.4142,94635,2021-05-19 17:30:34:020
5.9172,-12.0739,-1.0998,3.4787,-9.1689,-0.0187,0.5626,0.0651,-0.4971,0.4733,0.2361,0.4142,94636,2021-05-19 17:30:34:021
1.0307,-5.9976,-1.5308,2.8248,-9.1154,-2.2585,0,0,0,-1.8228,0.5707,-0.8775,95129,2021-05-19 17:30:34:514
1.0307,-5.9976,-1.5308,2.8248,-9.1154,-2.2585,0,0,0,-1.8228,0.5707,-0.8775,95129,2021-05-19 17:30:34:514
1.0307,-5.9976,-1.5308,2.8248,-9.1154,-2.2585,0,0,0,-1.8228,0.5707,-0.8775,95130,2021-05-19 17:30:34:515
1.0307,-5.9976,-1.5308,2.8248,-9.1154,-2.2585,0,0,0,-1.8228,0.5707,-0.8775,95130,2021-05-19 17:30:34:515
1.0307,-5.9976,-1.5308,2.8248,-9.1154,-2.2585,0,0,0,-1.8228,0.5707,-0.8775,95130,2021-05-19 17:30:34:515
2.3046,-5.5379,-3.8961,0.0588,-9.2907,-3.1384,0.6291,0.7902,-1.7012,-1.8228,0.5707,-0.8775,95479,2021-05-19 17:30:34:864
2.3046,-5.5379,-3.8961,0.0588,-9.2907,-3.1384,0.6291,0.7902,-1.7012,-1.8228,0.5707,-0.8775,95480,2021-05-19 17:30:34:865
2.3046,-5.5379,-3.8961,0.0588,-9.2907,-3.1384,0.6291,0.7902,-1.7012,-1.8228,0.5707,-0.8775,95481,2021-05-19 17:30:34:866
2.3046,-5.5379,-3.8961,0.0588,-9.2907,-3.1384,0.6291,0.7902,-1.7012,-1.8228,0.5707,-0.8775,95481,2021-05-19 17:30:34:866
2.3046,-5.5379,-3.8961,0.0588,-9.2907,-3.1384,0.6291,0.7902,-1.7012,-1.8228,0.5707,-0.8775,95481,2021-05-19 17:30:34:866
2.3046,-5.5379,-3.8961,0.0588,-9.2907,-3.1384,0.6291,0.7902,-1.7012,-1.8228,0.5707,-0.8775,95481,2021-05-19 17:30:34:866
2.3046,-5.5379,-3.8961,0.0588,-9.2907,-3.1384,0.6291,0.7902,-1.7012,-1.8228,0.5707,-0.8775,95481,2021-05-19 17:30:34:866
2.3046,-5.5379,-3.8961,0.0588,-9.2907,-3.1384,0.6291,0.7902,-1.7012,-1.8228,0.5707,-0.8775,95481,2021-05-19 17:30:34:866
2.3046,-5.5379,-3.8961,0.0588,-9.2907,-3.1384,0.6291,0.7902,-1.7012,-1.8228,0.5707,-0.8775,95482,2021-05-19 17:30:34:867
2.3046,-5.5379,-3.8961,0.0588,-9.2907,-3.1384,0.6291,0.7902,-1.7012,-1.8228,0.5707,-0.8775,95482,2021-05-19 17:30:34:867
2.3046,-5.5379,-3.8961,0.0588,-9.2907,-3.1384,0.6291,0.7902,-1.7012,-1.8228,0.5707,-0.8775,95482,2021-05-19 17:30:34:867
2.3046,-5.5379,-3.8961,0.0588,-9.2907,-3.1384,0.6291,0.7902,-1.7012,-1.8228,0.5707,-0.8775,95482,2021-05-19 17:30:34:867
2.3046,-5.5379,-3.8961,0.0588,-9.2907,-3.1384,0.6291,0.7902,-1.7012,-1.8228,0.5707,-0.8775,95482,2021-05-19 17:30:34:867
2.3046,-5.5379,-3.8961,0.0588,-9.2907,-3.1384,0.6291,0.7902,-1.7012,-1.8228,0.5707,-0.8775,95482,2021-05-19 17:30:34:867
2.3046,-5.5379,-3.8961,0.0588,-9.2907,-3.1384,0.6291,0.7902,-1.7012,-1.8228,0.5707,-0.8775,95483,2021-05-19 17:30:34:868
2.3046,-5.5379,-3.8961,0.0588,-9.2907,-3.1384,0.6291,0.7902,-1.7012,-1.8228,0.5707,-0.8775,95483,2021-05-19 17:30:34:868
2.3046,-5.5379,-3.8961,0.0588,-9.2907,-3.1384,0.6291,0.7902,-1.7012,-1.8228,0.5707,-0.8775,95483,2021-05-19 17:30:34:868
2.3046,-5.5379,-3.8961,0.0588,-9.2907,-3.1384,0.6291,0.7902,-1.7012,-1.8228,0.5707,-0.8775,95483,2021-05-19 17:30:34:868
2.3046,-5.5379,-3.8961,0.0588,-9.2907,-3.1384,0.6291,0.7902,-1.7012,-1.8228,0.5707,-0.8775,95483,2021-05-19 17:30:34:868
2.3046,-5.5379,-3.8961,0.0588,-9.2907,-3.1384,0.6291,0.7902,-1.7012,-1.8228,0.5707,-0.8775,95483,2021-05-19 17:30:34:868
2.3046,-5.5379,-3.8961,0.0588,-9.2907,-3.1384,0.6291,0.7902,-1.7012,-1.8228,0.5707,-0.8775,95484,2021-05-19 17:30:34:869
2.3046,-5.5379,-3.8961,0.0588,-9.2907,-3.1384,0.6291,0.7902,-1.7012,-1.8228,0.5707,-0.8775,95484,2021-05-19 17:30:34:869
2.3046,-5.5379,-3.8961,0.0588,-9.2907,-3.1384,0.6291,0.7902,-1.7012,-1.8228,0.5707,-0.8775,95484,2021-05-19 17:30:34:869
2.3046,-5.5379,-3.8961,0.0588,-9.2907,-3.1384,0.6291,0.7902,-1.7012,-1.8228,0.5707,-0.8775,95484,2021-05-19 17:30:34:869
2.3046,-5.5379,-3.8961,0.0588,-9.2907,-3.1384,0.6291,0.7902,-1.7012,-1.8228,0.5707,-0.8775,95484,2021-05-19 17:30:34:869
2.3046,-5.5379,-3.8961,0.0588,-9.2907,-3.1384,0.6291,0.7902,-1.7012,-1.8228,0.5707,-0.8775,95484,2021-05-19 17:30:34:869
0.3341,-4.0896,-5.359,2.5689,-8.6295,-3.8861,0,0,0,-2.0214,-1.0789,0.1585,95544,2021-05-19 17:30:34:929
0.8106,-5.4733,-5.0429,-0.7802,-8.1366,-5.4183,0,0,0,1.1847,0.5007,-0.8156,96367,2021-05-19 17:30:35:752
0.8106,-5.4733,-5.0429,-0.7802,-8.1366,-5.4183,0,0,0,1.1847,0.5007,-0.8156,96368,2021-05-19 17:30:35:753
0.8106,-5.4733,-5.0429,-0.7802,-8.1366,-5.4183,0,0,0,1.1847,0.5007,-0.8156,96368,2021-05-19 17:30:35:753
0.8106,-5.4733,-5.0429,-0.7802,-8.1366,-5.4183,0,0,0,1.1847,0.5007,-0.8156,96368,2021-05-19 17:30:35:753
0.8106,-5.4733,-5.0429,-0.7802,-8.1366,-5.4183,0,0,0,1.1847,0.5007,-0.8156,96368,2021-05-19 17:30:35:753
0.8106,-5.4733,-5.0429,-0.7802,-8.1366,-5.4183,0,0,0,1.1847,0.5007,-0.8156,96368,2021-05-19 17:30:35:753
0.8106,-5.4733,-5.0429,-0.7802,-8.1366,-5.4183,0,0,0,1.1847,0.5007,-0.8156,96368,2021-05-19 17:30:35:753
0.8106,-5.4733,-5.0429,-0.7802,-8.1366,-5.4183,0,0,0,1.1847,0.5007,-0.8156,96369,2021-05-19 17:30:35:754
0.8106,-5.4733,-5.0429,-0.7802,-8.1366,-5.4183,0,0,0,1.1847,0.5007,-0.8156,96369,2021-05-19 17:30:35:754
0.8106,-5.4733,-5.0429,-0.7802,-8.1366,-5.4183,0,0,0,1.1847,0.5007,-0.8156,96369,2021-05-19 17:30:35:754
0.8106,-5.4733,-5.0429,-0.7802,-8.1366,-5.4183,0,0,0,1.1847,0.5007,-0.8156,96369,2021-05-19 17:30:35:754
0.8106,-5.4733,-5.0429,-0.7802,-8.1366,-5.4183,0,0,0,1.1847,0.5007,-0.8156,96369,2021-05-19 17:30:35:754
0.8106,-5.4733,-5.0429,-0.7802,-8.1366,-5.4183,0,0,0,1.1847,0.5007,-0.8156,96369,2021-05-19 17:30:35:754
0.8106,-5.4733,-5.0429,-0.7802,-8.1366,-5.4183,0,0,0,1.1847,0.5007,-0.8156,96370,2021-05-19 17:30:35:755
0.8106,-5.4733,-5.0429,-0.7802,-8.1366,-5.4183,0,0,0,1.1847,0.5007,-0.8156,96370,2021-05-19 17:30:35:755
0.8106,-5.4733,-5.0429,-0.7802,-8.1366,-5.4183,0,0,0,1.1847,0.5007,-0.8156,96370,2021-05-19 17:30:35:755
0.8106,-5.4733,-5.0429,-0.7802,-8.1366,-5.4183,0,0,0,1.1847,0.5007,-0.8156,96370,2021-05-19 17:30:35:755
0.8106,-5.4733,-5.0429,-0.7802,-8.1366,-5.4183,0,0,0,1.1847,0.5007,-0.8156,96371,2021-05-19 17:30:35:756
0.8106,-5.4733,-5.0429,-0.7802,-8.1366,-5.4183,0,0,0,1.1847,0.5007,-0.8156,96371,2021-05-19 17:30:35:756
0.8106,-5.4733,-5.0429,-0.7802,-8.1366,-5.4183,0,0,0,1.1847,0.5007,-0.8156,96371,2021-05-19 17:30:35:756
0.8106,-5.4733,-5.0429,-0.7802,-8.1366,-5.4183,0,0,0,1.1847,0.5007,-0.8156,96371,2021-05-19 17:30:35:756
0.8106,-5.4733,-5.0429,-0.7802,-8.1366,-5.4183,0,0,0,1.1847,0.5007,-0.8156,96371,2021-05-19 17:30:35:756
0.8106,-5.4733,-5.0429,-0.7802,-8.1366,-5.4183,0,0,0,1.1847,0.5007,-0.8156,96371,2021-05-19 17:30:35:756
0.8106,-5.4733,-5.0429,-0.7802,-8.1366,-5.4183,0,0,0,1.1847,0.5007,-0.8156,96372,2021-05-19 17:30:35:757
0.8106,-5.4733,-5.0429,-0.7802,-8.1366,-5.4183,0,0,0,1.1847,0.5007,-0.8156,96372,2021-05-19 17:30:35:757
0.8106,-5.4733,-5.0429,-0.7802,-8.1366,-5.4183,0,0,0,1.1847,0.5007,-0.8156,96372,2021-05-19 17:30:35:757
0.8106,-5.4733,-5.0429,-0.7802,-8.1366,-5.4183,0,0,0,1.1847,0.5007,-0.8156,96372,2021-05-19 17:30:35:757
0.8106,-5.4733,-5.0429,-0.7802,-8.1366,-5.4183,0,0,0,1.1847,0.5007,-0.8156,96372,2021-05-19 17:30:35:757
0.8106,-5.4733,-5.0429,-0.7802,-8.1366,-5.4183,0,0,0,1.1847,0.5007,-0.8156,96372,2021-05-19 17:30:35:757
0.8106,-5.4733,-5.0429,-0.7802,-8.1366,-5.4183,0,0,0,1.1847,0.5007,-0.8156,96373,2021-05-19 17:30:35:758
0.8106,-5.4733,-5.0429,-0.7802,-8.1366,-5.4183,0,0,0,1.1847,0.5007,-0.8156,96373,2021-05-19 17:30:35:758
0.8106,-5.4733,-5.0429,-0.7802,-8.1366,-5.4183,0,0,0,1.1847,0.5007,-0.8156,96373,2021-05-19 17:30:35:758
0.8106,-5.4733,-5.0429,-0.7802,-8.1366,-5.4183,0,0,0,1.1847,0.5007,-0.8156,96373,2021-05-19 17:30:35:758
0.8106,-5.4733,-5.0429,-0.7802,-8.1366,-5.4183,0,0,0,1.1847,0.5007,-0.8156,96373,2021-05-19 17:30:35:758
0.8106,-5.4733,-5.0429,-0.7802,-8.1366,-5.4183,0,0,0,1.1847,0.5007,-0.8156,96373,2021-05-19 17:30:35:758
0.8106,-5.4733,-5.0429,-0.7802,-8.1366,-5.4183,0,0,0,1.1847,0.5007,-0.8156,96373,2021-05-19 17:30:35:758
0.8106,-5.4733,-5.0429,-0.7802,-8.1366,-5.4183,0,0,0,1.1847,0.5007,-0.8156,96374,2021-05-19 17:30:35:759
0.8106,-5.4733,-5.0429,-0.7802,-8.1366,-5.4183,0,0,0,1.1847,0.5007,-0.8156,96374,2021-05-19 17:30:35:759
0.8106,-5.4733,-5.0429,-0.7802,-8.1366,-5.4183,0,0,0,1.1847,0.5007,-0.8156,96374,2021-05-19 17:30:35:759
0.8106,-5.4733,-5.0429,-0.7802,-8.1366,-5.4183,0,0,0,1.1847,0.5007,-0.8156,96374,2021-05-19 17:30:35:759
0.8106,-5.4733,-5.0429,-0.7802,-8.1366,-5.4183,0,0,0,1.1847,0.5007,-0.8156,96374,2021-05-19 17:30:35:759
0.8106,-5.4733,-5.0429,-0.7802,-8.1366,-5.4183,0,0,0,1.1847,0.5007,-0.8156,96374,2021-05-19 17:30:35:759
0.8106,-5.4733,-5.0429,-0.7802,-8.1366,-5.4183,0,0,0,1.1847,0.5007,-0.8156,96375,2021-05-19 17:30:35:760
0.8106,-5.4733,-5.0429,-0.7802,-8.1366,-5.4183,0,0,0,1.1847,0.5007,-0.8156,96375,2021-05-19 17:30:35:760
0.8106,-5.4733,-5.0429,-0.7802,-8.1366,-5.4183,0,0,0,1.1847,0.5007,-0.8156,96375,2021-05-19 17:30:35:760
0.8106,-5.4733,-5.0429,-0.7802,-8.1366,-5.4183,0,0,0,1.1847,0.5007,-0.8156,96375,2021-05-19 17:30:35:760
0.8106,-5.4733,-5.0429,-0.7802,-8.1366,-5.4183,0,0,0,1.1847,0.5007,-0.8156,96375,2021-05-19 17:30:35:760
0.8106,-5.4733,-5.0429,-0.7802,-8.1366,-5.4183,0,0,0,1.1847,0.5007,-0.8156,96375,2021-05-19 17:30:35:760
0.8106,-5.4733,-5.0429,-0.7802,-8.1366,-5.4183,0,0,0,1.1847,0.5007,-0.8156,96376,2021-05-19 17:30:35:761
0.8106,-5.4733,-5.0429,-0.7802,-8.1366,-5.4183,0,0,0,1.1847,0.5007,-0.8156,96380,2021-05-19 17:30:35:765
0.8106,-5.4733,-5.0429,-0.7802,-8.1366,-5.4183,0,0,0,1.1847,0.5007,-0.8156,96380,2021-05-19 17:30:35:765
0.8106,-5.4733,-5.0429,-0.7802,-8.1366,-5.4183,0,0,0,1.1847,0.5007,-0.8156,96380,2021-05-19 17:30:35:765
0.8106,-5.4733,-5.0429,-0.7802,-8.1366,-5.4183,0,0,0,1.1847,0.5007,-0.8156,96381,2021-05-19 17:30:35:766
0.8106,-5.4733,-5.0429,-0.7802,-8.1366,-5.4183,0,0,0,1.1847,0.5007,-0.8156,96381,2021-05-19 17:30:35:766
0.8106,-5.4733,-5.0429,-0.7802,-8.1366,-5.4183,0,0,0,1.1847,0.5007,-0.8156,96381,2021-05-19 17:30:35:766
0.8106,-5.4733,-5.0429,-0.7802,-8.1366,-5.4183,0,0,0,1.1847,0.5007,-0.8156,96381,2021-05-19 17:30:35:766
0.8106,-5.4733,-5.0429,-0.7802,-8.1366,-5.4183,0,0,0,1.1847,0.5007,-0.8156,96381,2021-05-19 17:30:35:766
0.8106,-5.4733,-5.0429,-0.7802,-8.1366,-5.4183,0,0,0,1.1847,0.5007,-0.8156,96381,2021-05-19 17:30:35:766
0.8106,-5.4733,-5.0429,-0.7802,-8.1366,-5.4183,0,0,0,1.1847,0.5007,-0.8156,96382,2021-05-19 17:30:35:767
0.8106,-5.4733,-5.0429,-0.7802,-8.1366,-5.4183,0,0,0,1.1847,0.5007,-0.8156,96382,2021-05-19 17:30:35:767
0.8106,-5.4733,-5.0429,-0.7802,-8.1366,-5.4183,0,0,0,1.1847,0.5007,-0.8156,96382,2021-05-19 17:30:35:767
0.8106,-5.4733,-5.0429,-0.7802,-8.1366,-5.4183,0,0,0,1.1847,0.5007,-0.8156,96382,2021-05-19 17:30:35:767
0.8106,-5.4733,-5.0429,-0.7802,-8.1366,-5.4183,0,0,0,1.1847,0.5007,-0.8156,96382,2021-05-19 17:30:35:767
1.445,-10.7596,0.4947,-0.7802,-8.1366,-5.4183,0,0,0,1.1847,0.5007,-0.8156,96419,2021-05-19 17:30:35:804
1.445,-10.7596,0.4947,-0.7802,-8.1366,-5.4183,0,0,0,1.1847,0.5007,-0.8156,96419,2021-05-19 17:30:35:804
1.445,-10.7596,0.4947,-0.7802,-8.1366,-5.4183,0,0,0,1.1847,0.5007,-0.8156,96420,2021-05-19 17:30:35:805
1.445,-10.7596,0.4947,-0.7802,-8.1366,-5.4183,0,0,0,1.1847,0.5007,-0.8156,96420,2021-05-19 17:30:35:805
1.445,-10.7596,0.4947,-0.7802,-8.1366,-5.4183,0,0,0,1.1847,0.5007,-0.8156,96420,2021-05-19 17:30:35:805
1.445,-10.7596,0.4947,-0.7802,-8.1366,-5.4183,0,0,0,1.1847,0.5007,-0.8156,96420,2021-05-19 17:30:35:805
1.445,-10.7596,0.4947,-0.7802,-8.1366,-5.4183,0,0,0,1.1847,0.5007,-0.8156,96420,2021-05-19 17:30:35:805
1.445,-10.7596,0.4947,-0.7802,-8.1366,-5.4183,0,0,0,1.1847,0.5007,-0.8156,96420,2021-05-19 17:30:35:805
1.445,-10.7596,0.4947,-0.7802,-8.1366,-5.4183,0,0,0,1.1847,0.5007,-0.8156,96420,2021-05-19 17:30:35:805
2.2325,-6.5267,-2.1867,2.7263,-9.1171,-2.3698,1.3508,-1.0996,0.5319,1.3243,0.5719,0.4161,96606,2021-05-19 17:30:35:991
3.3075,-11.9471,-1.0208,3.1594,-9.281,-0.2287,1.2596,-2.6587,-0.0725,0.0589,0.3407,0.3413,97108,2021-05-19 17:30:36:493
-0.2333,-8.5905,-3.9631,2.7934,-8.3594,-4.2997,-2.4914,0.3719,0.9261,-1.0902,-0.7973,-0.2126,97608,2021-05-19 17:30:36:993
1.1937,-5.6387,-3.2163,3.0602,-7.5904,-5.4029,0,0,0,0.6417,-0.6083,-0.43,98108,2021-05-19 17:30:37:493
1.1937,-5.6387,-3.2163,3.0602,-7.5904,-5.4029,0,0,0,0.6417,-0.6083,-0.43,98109,2021-05-19 17:30:37:494
1.1937,-5.6387,-3.2163,3.0602,-7.5904,-5.4029,0,0,0,0.6417,-0.6083,-0.43,98110,2021-05-19 17:30:37:495
1.1937,-5.6387,-3.2163,3.0602,-7.5904,-5.4029,0,0,0,0.6417,-0.6083,-0.43,98110,2021-05-19 17:30:37:495
1.1937,-5.6387,-3.2163,3.0602,-7.5904,-5.4029,0,0,0,0.6417,-0.6083,-0.43,98111,2021-05-19 17:30:37:496
1.1937,-5.6387,-3.2163,3.0602,-7.5904,-5.4029,0,0,0,0.6417,-0.6083,-0.43,98111,2021-05-19 17:30:37:496
1.1937,-5.6387,-3.2163,3.0602,-7.5904,-5.4029,0,0,0,0.6417,-0.6083,-0.43,98112,2021-05-19 17:30:37:497
1.1937,-5.6387,-3.2163,3.0602,-7.5904,-5.4029,0,0,0,0.6417,-0.6083,-0.43,98112,2021-05-19 17:30:37:497
1.1937,-5.6387,-3.2163,3.0602,-7.5904,-5.4029,0,0,0,0.6417,-0.6083,-0.43,98113,2021-05-19 17:30:37:498
1.1937,-5.6387,-3.2163,3.0602,-7.5904,-5.4029,0,0,0,0.6417,-0.6083,-0.43,98113,2021-05-19 17:30:37:498
1.1937,-5.6387,-3.2163,3.0602,-7.5904,-5.4029,0,0,0,0.6417,-0.6083,-0.43,98114,2021-05-19 17:30:37:499
1.1937,-5.6387,-3.2163,3.0602,-7.5904,-5.4029,0,0,0,0.6417,-0.6083,-0.43,98115,2021-05-19 17:30:37:500
1.1937,-5.6387,-3.2163,3.0602,-7.5904,-5.4029,0,0,0,0.6417,-0.6083,-0.43,98115,2021-05-19 17:30:37:500
1.1937,-5.6387,-3.2163,3.0602,-7.5904,-5.4029,0,0,0,0.6417,-0.6083,-0.43,98116,2021-05-19 17:30:37:501
1.1937,-5.6387,-3.2163,3.0602,-7.5904,-5.4029,0,0,0,0.6417,-0.6083,-0.43,98116,2021-05-19 17:30:37:501
1.1937,-5.6387,-3.2163,3.0602,-7.5904,-5.4029,0,0,0,0.6417,-0.6083,-0.43,98116,2021-05-19 17:30:37:501
4.5479,-11.0133,-6.7714,0.5482,-5.9663,-7.7636,0,0,0,0.6417,-0.6083,-0.43,98494,2021-05-19 17:30:37:879
4.5479,-11.0133,-6.7714,0.5482,-5.9663,-7.7636,0,0,0,0.6417,-0.6083,-0.43,98495,2021-05-19 17:30:37:880
4.5479,-11.0133,-6.7714,0.5482,-5.9663,-7.7636,0,0,0,0.6417,-0.6083,-0.43,98495,2021-05-19 17:30:37:880
4.5479,-11.0133,-6.7714,0.5482,-5.9663,-7.7636,0,0,0,0.6417,-0.6083,-0.43,98495,2021-05-19 17:30:37:880
4.5479,-11.0133,-6.7714,0.5482,-5.9663,-7.7636,0,0,0,0.6417,-0.6083,-0.43,98495,2021-05-19 17:30:37:880
4.5479,-11.0133,-6.7714,0.5482,-5.9663,-7.7636,0,0,0,0.6417,-0.6083,-0.43,98496,2021-05-19 17:30:37:881
4.5479,-11.0133,-6.7714,0.5482,-5.9663,-7.7636,0,0,0,0.6417,-0.6083,-0.43,98496,2021-05-19 17:30:37:881
4.5479,-11.0133,-6.7714,0.5482,-5.9663,-7.7636,0,0,0,0.6417,-0.6083,-0.43,98496,2021-05-19 17:30:37:881
4.5479,-11.0133,-6.7714,0.5482,-5.9663,-7.7636,0,0,0,0.6417,-0.6083,-0.43,98497,2021-05-19 17:30:37:882
4.5479,-11.0133,-6.7714,0.5482,-5.9663,-7.7636,0,0,0,0.6417,-0.6083,-0.43,98497,2021-05-19 17:30:37:882
4.5479,-11.0133,-6.7714,0.5482,-5.9663,-7.7636,0,0,0,0.6417,-0.6083,-0.43,98498,2021-05-19 17:30:37:883
4.5479,-11.0133,-6.7714,0.5482,-5.9663,-7.7636,0,0,0,0.6417,-0.6083,-0.43,98498,2021-05-19 17:30:37:883
4.5479,-11.0133,-6.7714,0.5482,-5.9663,-7.7636,0,0,0,0.6417,-0.6083,-0.43,98498,2021-05-19 17:30:37:883
4.5479,-11.0133,-6.7714,0.5482,-5.9663,-7.7636,0,0,0,0.6417,-0.6083,-0.43,98499,2021-05-19 17:30:37:884
4.5479,-11.0133,-6.7714,0.5482,-5.9663,-7.7636,0,0,0,0.6417,-0.6083,-0.43,98499,2021-05-19 17:30:37:884
4.5479,-11.0133,-6.7714,0.5482,-5.9663,-7.7636,0,0,0,0.6417,-0.6083,-0.43,98499,2021-05-19 17:30:37:884
4.5479,-11.0133,-6.7714,0.5482,-5.9663,-7.7636,0,0,0,0.6417,-0.6083,-0.43,98500,2021-05-19 17:30:37:885
4.5479,-11.0133,-6.7714,0.5482,-5.9663,-7.7636,0,0,0,0.6417,-0.6083,-0.43,98500,2021-05-19 17:30:37:885
4.5479,-11.0133,-6.7714,0.5482,-5.9663,-7.7636,0,0,0,0.6417,-0.6083,-0.43,98501,2021-05-19 17:30:37:886
4.5479,-11.0133,-6.7714,0.5482,-5.9663,-7.7636,0,0,0,0.6417,-0.6083,-0.43,98501,2021-05-19 17:30:37:886
4.5479,-11.0133,-6.7714,0.5482,-5.9663,-7.7636,0,0,0,0.6417,-0.6083,-0.43,98501,2021-05-19 17:30:37:886
4.5479,-11.0133,-6.7714,0.5482,-5.9663,-7.7636,0,0,0,0.6417,-0.6083,-0.43,98502,2021-05-19 17:30:37:887
4.5479,-11.0133,-6.7714,0.5482,-5.9663,-7.7636,0,0,0,0.6417,-0.6083,-0.43,98502,2021-05-19 17:30:37:887
4.5479,-11.0133,-6.7714,0.5482,-5.9663,-7.7636,0,0,0,0.6417,-0.6083,-0.43,98502,2021-05-19 17:30:37:887
4.5479,-11.0133,-6.7714,0.5482,-5.9663,-7.7636,0,0,0,0.6417,-0.6083,-0.43,98502,2021-05-19 17:30:37:887
4.5479,-11.0133,-6.7714,0.5482,-5.9663,-7.7636,0,0,0,0.6417,-0.6083,-0.43,98502,2021-05-19 17:30:37:887
4.5479,-11.0133,-6.7714,0.5482,-5.9663,-7.7636,0,0,0,0.6417,-0.6083,-0.43,98503,2021-05-19 17:30:37:888
4.5479,-11.0133,-6.7714,0.5482,-5.9663,-7.7636,0,0,0,0.6417,-0.6083,-0.43,98503,2021-05-19 17:30:37:888
4.5479,-11.0133,-6.7714,0.5482,-5.9663,-7.7636,0,0,0,0.6417,-0.6083,-0.43,98503,2021-05-19 17:30:37:888
4.5479,-11.0133,-6.7714,0.5482,-5.9663,-7.7636,0,0,0,0.6417,-0.6083,-0.43,98503,2021-05-19 17:30:37:888
4.5479,-11.0133,-6.7714,0.5482,-5.9663,-7.7636,0,0,0,0.6417,-0.6083,-0.43,98504,2021-05-19 17:30:37:889
4.5479,-11.0133,-6.7714,0.5482,-5.9663,-7.7636,0,0,0,0.6417,-0.6083,-0.43,98505,2021-05-19 17:30:37:890
4.5479,-11.0133,-6.7714,0.5482,-5.9663,-7.7636,0,0,0,0.6417,-0.6083,-0.43,98505,2021-05-19 17:30:37:890
4.5479,-11.0133,-6.7714,0.5482,-5.9663,-7.7636,0,0,0,0.6417,-0.6083,-0.43,98505,2021-05-19 17:30:37:890
4.5479,-11.0133,-6.7714,0.5482,-5.9663,-7.7636,0,0,0,0.6417,-0.6083,-0.43,98505,2021-05-19 17:30:37:890
4.5479,-11.0133,-6.7714,0.5482,-5.9663,-7.7636,0,0,0,0.6417,-0.6083,-0.43,98505,2021-05-19 17:30:37:890
4.5479,-11.0133,-6.7714,0.5482,-5.9663,-7.7636,0,0,0,0.6417,-0.6083,-0.43,98506,2021-05-19 17:30:37:891
4.5479,-11.0133,-6.7714,0.5482,-5.9663,-7.7636,0,0,0,0.6417,-0.6083,-0.43,98506,2021-05-19 17:30:37:891
4.5479,-11.0133,-6.7714,0.5482,-5.9663,-7.7636,0,0,0,0.6417,-0.6083,-0.43,98506,2021-05-19 17:30:37:891
4.5479,-11.0133,-6.7714,0.5482,-5.9663,-7.7636,0,0,0,0.6417,-0.6083,-0.43,98506,2021-05-19 17:30:37:891
4.5479,-11.0133,-6.7714,0.5482,-5.9663,-7.7636,0,0,0,0.6417,-0.6083,-0.43,98507,2021-05-19 17:30:37:892
4.5479,-11.0133,-6.7714,0.5482,-5.9663,-7.7636,0,0,0,0.6417,-0.6083,-0.43,98507,2021-05-19 17:30:37:892
4.5479,-11.0133,-6.7714,0.5482,-5.9663,-7.7636,0,0,0,0.6417,-0.6083,-0.43,98507,2021-05-19 17:30:37:892
4.5479,-11.0133,-6.7714,0.5482,-5.9663,-7.7636,0,0,0,0.6417,-0.6083,-0.43,98507,2021-05-19 17:30:37:892
0.4585,-6.3855,-5.6868,3.255,-9.1393,-1.4315,-0.8906,-1.8855,-1.484,0.3228,-0.9628,-0.4722,98540,2021-05-19 17:30:37:925
-0.0036,0.4352,-2.5388,3.1326,-8.8027,-2.9782,0,0,0,0.7266,0.1092,-0.363,99041,2021-05-19 17:30:38:426
-0.0036,0.4352,-2.5388,3.1326,-8.8027,-2.9782,0,0,0,0.7266,0.1092,-0.363,99042,2021-05-19 17:30:38:427
-0.0036,0.4352,-2.5388,3.1326,-8.8027,-2.9782,0,0,0,0.7266,0.1092,-0.363,99042,2021-05-19 17:30:38:427
-0.0036,0.4352,-2.5388,3.1326,-8.8027,-2.9782,0,0,0,0.7266,0.1092,-0.363,99042,2021-05-19 17:30:38:427
-0.0036,0.4352,-2.5388,3.1326,-8.8027,-2.9782,0,0,0,0.7266,0.1092,-0.363,99043,2021-05-19 17:30:38:428
-0.0036,0.4352,-2.5388,3.1326,-8.8027,-2.9782,0,0,0,0.7266,0.1092,-0.363,99043,2021-05-19 17:30:38:428
-0.0036,0.4352,-2.5388,3.1326,-8.8027,-2.9782,0,0,0,0.7266,0.1092,-0.363,99043,2021-05-19 17:30:38:428
-0.0036,0.4352,-2.5388,3.1326,-8.8027,-2.9782,0,0,0,0.7266,0.1092,-0.363,99043,2021-05-19 17:30:38:428
-0.0036,0.4352,-2.5388,3.1326,-8.8027,-2.9782,0,0,0,0.7266,0.1092,-0.363,99043,2021-05-19 17:30:38:428
-0.0036,0.4352,-2.5388,3.1326,-8.8027,-2.9782,0,0,0,0.7266,0.1092,-0.363,99043,2021-05-19 17:30:38:428
-0.0036,0.4352,-2.5388,3.1326,-8.8027,-2.9782,0,0,0,0.7266,0.1092,-0.363,99043,2021-05-19 17:30:38:428
-0.0036,0.4352,-2.5388,3.1326,-8.8027,-2.9782,0,0,0,0.7266,0.1092,-0.363,99044,2021-05-19 17:30:38:429
8.097,-3.6383,8.6237,7.4518,-4.9391,-4.0306,2.3989,1.2171,-0.8244,-1.5027,2.6564,-1.0513,99250,2021-05-19 17:30:38:635
1.876,2.4954,8.2681,2.203,3.175,9.0131,-0.2148,-2.4373,0.5361,1.093,0.8207,-0.5792,99750,2021-05-19 17:30:39:135
-1.136,3.6912,9.0236,0.1431,3.5745,9.1309,-0.9467,0.1186,-0.2777,0.0887,0.0874,-0.086,100250,2021-05-19 17:30:39:635
1.1806,3.4017,7.5763,0.4218,4.9871,8.4333,-0.0511,0.4251,-1.1699,-0.2705,1.0927,-0.0582,100749,2021-05-19 17:30:40:134
-5.2633,4.2861,5.339,-5.4321,4.3908,6.8835,-0.2768,0.239,-0.029,-0.2779,1.579,-0.0334,101249,2021-05-19 17:30:40:634
-4.6983,3.2411,8.3498,-3.8046,3.6797,8.2556,-1.6688,0.4301,0.4843,-0.1,-0.8613,-0.6799,101750,2021-05-19 17:30:41:135
-2.3366,4.2945,6.6583,1.5753,2.4292,9.3695,-3.4248,1.6338,-2.7806,-2.1656,-1.7687,0.965,102250,2021-05-19 17:30:41:635
2.2863,8.2543,4.0116,3.2402,8.4659,3.7416,-0.0517,-0.6209,-2.5717,0.2155,0.4439,-0.52,102750,2021-05-19 17:30:42:135
0.504,7.6475,4.835,1.3409,8.0984,5.3654,0.0998,0.2422,-2.1649,-1.2055,0.6197,-0.1144,103250,2021-05-19 17:30:42:635
-1.331,3.8803,11.7171,-0.9945,5.1053,8.3137,0.4268,0.8997,-0.6227,1.3271,-1.1131,-0.3799,103749,2021-05-19 17:30:43:134
-3.0176,2.3028,9.0703,-2.7441,1.3682,9.315,-0.6148,1.6965,-2.0421,-2.1607,-1.0653,0.3729,17,2021-05-19 17:21:35:636
3.9048,1.363,4.1623,7.3759,0.7389,6.4203,-1.4152,0.7465,0.8886,1.5804,-2.1607,0.8743,517,2021-05-19 17:21:36:136
5.412,-8.193,-8.2941,9.5096,-1.3415,-1.9847,-1.3185,-6.7562,-5.3641,1.7794,-0.8743,0.4241,1020,2021-05-19 17:21:36:639
8.5771,2.8941,-5.8164,8.7456,-4.3508,0.8695,2.6981,-0.6906,-5.1855,1.7551,0.0548,-1.1401,1517,2021-05-19 17:21:37:136
3.0347,-1.8057,-1.0208,6.9134,-6.8693,1.09,3.8084,2.6965,0.292,1.4097,0.7503,0.6322,2018,2021-05-19 17:21:37:637
7.1644,-8.2911,-4.0277,5.3717,-7.9656,-1.9659,0.1862,4.2016,0.2617,1.415,-0.1486,-0.6765,2518,2021-05-19 17:21:38:137
5.2612,-3.2468,-2.9722,8.9183,-1.9697,-3.5713,0,0,0,-0.0647,0.2393,0.1526,3018,2021-05-19 17:21:38:637
2.8816,-11.5304,-7.6334,1.2761,-8.1946,-5.2336,2.2951,-7.9319,-4.1903,0.6661,1.6801,0.283,3518,2021-05-19 17:21:39:137
-0.0251,-7.9394,1.3421,0.223,-9.6832,-1.5351,3.0015,0.3704,0.0464,1.0797,1.038,-0.4522,4050,2021-05-19 17:21:39:669
-0.0251,-7.9394,1.3421,0.223,-9.6832,-1.5351,3.0015,0.3704,0.0464,1.0797,1.038,-0.4522,4051,2021-05-19 17:21:39:670
-0.0251,-7.9394,1.3421,0.223,-9.6832,-1.5351,3.0015,0.3704,0.0464,1.0797,1.038,-0.4522,4051,2021-05-19 17:21:39:670
-4.1572,-7.2473,-13.3911,0.4207,-9.7873,-0.4487,2.158,-5.8366,0.0038,2.0674,-1.4405,-0.201,4289,2021-05-19 17:21:39:908
1.3516,-16.9101,-4.7868,0.3673,-8.8528,-4.2027,1.7261,-2.829,-1.5496,-0.744,-0.6701,0.1536,4788,2021-05-19 17:21:40:407
-1.9092,-10.4865,-16.6185,0.3076,-9.6675,-1.6171,0.1741,-0.3813,-1.074,0.3074,0.5612,-0.1431,5288,2021-05-19 17:21:40:907
1.9238,-9.4379,-1.2843,0.5554,-9.7192,-1.183,1.4172,-0.2477,-1.0313,0.4926,0.4004,0.2398,5788,2021-05-19 17:21:41:407
-0.3793,-9.8761,-2.1796,0.0693,-9.6977,-1.4561,-0.4802,-0.2862,0.5856,-1.1963,0.1367,-0.0067,6288,2021-05-19 17:21:41:907
0.6957,-9.0838,-1.8036,-0.3826,-9.5861,-2.0325,0.6549,-2.4271,0.014,0.1545,-0.5528,-0.1807,6788,2021-05-19 17:21:42:407
-1.0089,-9.6775,-1.6983,0.1359,-9.2859,-3.1502,1.5608,2.231,1.9308,0.7297,-0.1781,1.1293,7289,2021-05-19 17:21:42:908
0.1499,-8.4709,-2.3375,0.0224,-9.6752,-1.6,1.065,-0.7957,-1.2778,-1.1183,0.1749,-0.2924,7789,2021-05-19 17:21:43:408
0.8177,-9.5985,-1.3992,-0.1217,-9.7563,-0.9846,-0.3567,0.7085,-0.6683,1.1805,0.1614,0.0779,8288,2021-05-19 17:21:43:907
-0.2572,-10.1157,-1.5978,0.2462,-9.5435,-2.2429,-0.1712,1.0733,0.6972,-1.2557,0.2011,-0.2376,8788,2021-05-19 17:21:44:407
0.3173,-9.4475,-0.3888,-0.2129,-9.7893,-0.542,1.6419,-0.8205,-0.5731,0.6669,0.0863,0.3572,9288,2021-05-19 17:21:44:907
-0.3075,-7.5562,-1.04,-0.3741,-9.1384,-3.5383,0.4414,-1.4122,-1.0286,-1.4479,-0.3439,0.5046,9789,2021-05-19 17:21:45:408
1.5479,-10.7429,-1.8733,-0.315,-9.7998,-0.1848,-0.0326,-0.1413,-1.4985,0.2089,-0.1689,-0.0678,10289,2021-05-19 17:21:45:908
-0.9443,-6.6823,-2.4981,-0.0182,-9.0461,-3.7865,0.919,-3.2993,-0.7271,-1.1837,-0.6112,-0.0928,10788,2021-05-19 17:21:46:407
1.1408,-9.7899,-0.4439,-0.1696,-9.8023,-0.2362,1.4656,0.0816,-0.0988,-0.3989,0.2643,-0.0614,11289,2021-05-19 17:21:46:908
-1.2173,-7.2544,-2.4909,0.243,-8.9565,-3.9865,-0.811,-0.9469,-0.4922,-0.6974,-0.2576,-1.0803,11788,2021-05-19 17:21:47:407
-3.8868,-6.3329,-2.4407,-0.1481,-9.5427,-2.2549,-1.7695,-4.1152,-0.4607,0.8164,-0.2821,0.4545,12288,2021-05-19 17:21:47:907
-2.8047,-11.9351,-6.9176,0.1755,-9.0884,-3.6798,-3.0591,-2.5341,-2.0026,-1.4705,-0.6342,-0.514,12788,2021-05-19 17:21:48:407
-2.5125,-10.0603,-12.1319,0.1213,-9.4796,-2.5085,-2.4403,0.2333,-10.654,0.1918,0.0373,-0.1976,13288,2021-05-19 17:21:48:907
-1.1958,-9.8115,-1.6313,-0.2743,-8.6325,-4.6449,3.8051,-7.1535,-2.9212,-1.7617,-0.3124,0.128,13789,2021-05-19 17:21:49:408
2.5271,-5.2484,3.8991,0.2573,-9.5351,-2.2772,-5.9106,1.2594,-11.4844,-0.6644,0.7883,-0.3195,14291,2021-05-19 17:21:49:910
-3.8868,-13.4722,-3.731,0.0466,-8.7301,-4.4669,-1.5239,-9.873,-2.2752,-1.353,-1.0791,-0.1941,14789,2021-05-19 17:21:50:408
-6.1181,-7.7596,-4.0181,-0.1859,-9.7219,-1.2729,0.479,-3.0454,2.9287,-0.3951,1.1067,0.4268,15288,2021-05-19 17:21:50:907
-3.3096,-14.1592,0.7771,2.5371,-9.1844,-2.3194,0,0,0,-2.6751,0.0672,-1.0297,15789,2021-05-19 17:21:51:408
-1.9331,-0.8886,0.7747,-1.1611,-9.7366,-0.1407,-0.1486,7.3015,-0.2359,0.5504,-1.0566,0.6041,16412,2021-05-19 17:21:52:031
-1.9331,-0.8886,0.7747,-1.1611,-9.7366,-0.1407,-0.1486,7.3015,-0.2359,0.5504,-1.0566,0.6041,16413,2021-05-19 17:21:52:032
-1.1432,-5.313,-1.7844,-0.5099,-9.6401,-1.7259,0,0,0,-1.2736,-0.9453,-0.587,16875,2021-05-19 17:21:52:494
3.7409,-13.721,-7.0923,3.4028,-8.5921,-3.2813,1.0266,-0.1366,-0.2322,-1.2736,-0.9453,-0.587,17207,2021-05-19 17:21:52:826
3.7409,-13.721,-7.0923,3.4028,-8.5921,-3.2813,1.0266,-0.1366,-0.2322,-1.2736,-0.9453,-0.587,17208,2021-05-19 17:21:52:827
-0.6906,-21.6287,-7.5903,2.0493,-8.156,-5.0449,0,0,0,-2.9347,-1.3074,0.3306,17599,2021-05-19 17:21:53:218
-0.6906,-21.6287,-7.5903,2.0493,-8.156,-5.0449,0,0,0,-2.9347,-1.3074,0.3306,17600,2021-05-19 17:21:53:219
-0.6906,-21.6287,-7.5903,2.0493,-8.156,-5.0449,0,0,0,-2.9347,-1.3074,0.3306,17604,2021-05-19 17:21:53:223
-0.6906,-21.6287,-7.5903,2.0493,-8.156,-5.0449,0,0,0,-2.9347,-1.3074,0.3306,17604,2021-05-19 17:21:53:223
4.1695,-7.1037,-2.4957,3.7755,-8.4824,-3.1568,0,0,0,-0.2347,0.135,0.4198,17667,2021-05-19 17:21:53:286
-1.2437,-7.1372,-0.1567,-0.9041,-9.7648,-0.0512,1.0502,1.4702,0.3808,2.0766,0.9615,-0.6477,18209,2021-05-19 17:21:53:828
-1.2437,-7.1372,-0.1567,-0.9041,-9.7648,-0.0512,1.0502,1.4702,0.3808,2.0766,0.9615,-0.6477,18210,2021-05-19 17:21:53:829
2.6922,-11.3701,-8.7658,-2.2726,-9.3008,-2.1216,1.0526,-1.258,-0.8892,0.5649,0.8028,-0.7216,18503,2021-05-19 17:21:54:122
3.7744,-9.7325,-2.8068,-1.0509,-9.7151,0.8267,0.2137,0.6796,-0.9878,0.44,0.8521,-0.0557,18985,2021-05-19 17:21:54:604
-1.4901,-6.3377,-3.044,-0.0975,-9.1939,-3.4108,-1.6381,2.8447,2.2914,-0.5591,-0.4062,0.0794,19485,2021-05-19 17:21:55:104
1.5933,-9.8282,-3.7023,-0.3919,-9.7766,-0.6598,0.7546,1.1569,0.2728,1.0044,-0.1426,0.1619,19984,2021-05-19 17:21:55:603
-0.0945,-2.1287,-1.0017,-0.3569,-9.3351,-2.9832,-1.282,7.3983,1.7883,1.6872,0.3144,1.3733,20484,2021-05-19 17:21:56:103
0.1738,-14.0178,-6.4149,-0.5213,-9.144,-3.5051,3.3213,1.7988,0.9345,0.1816,0.17,0.7066,20984,2021-05-19 17:21:56:603
-8.371,-17.135,14.1362,-0.3303,-9.6022,-1.9643,-4.9068,3.5068,-0.3184,0.9839,0.6098,-0.5438,21484,2021-05-19 17:21:57:103
-1.3418,-14.6189,-2.5627,-0.5607,-8.2742,-5.2338,1.3781,-10.2152,-0.1252,-2.2126,-0.1894,-0.0389,21984,2021-05-19 17:21:57:603
-0.6117,-13.477,-4.241,0.1465,-9.6297,-1.8486,1.9913,3.0628,5.2419,-0.1701,0.4983,0.7243,22484,2021-05-19 17:21:58:103
5.2636,-6.3855,-6.0676,-0.0315,-9.3346,-3.0058,-1.1927,6.1857,1.9092,1.9576,0.5646,0.4978,22985,2021-05-19 17:21:58:604
0.4753,-8.8753,-1.8517,-0.5757,-9.7873,-0.2204,3.0266,0.1036,-1.4824,0.5288,0.6664,0.122,23484,2021-05-19 17:21:59:103
-2.5771,-8.5762,-2.2825,-0.5293,-9.0488,-3.743,-1.924,0.3663,0.7833,0.1559,0.4693,0.4591,23984,2021-05-19 17:21:59:603
-1.3155,-9.2393,-2.7733,-0.1381,-9.6449,-1.7683,0.6485,-1.721,-1.307,0.3839,-0.093,0.3948,24485,2021-05-19 17:22:00:104
1.4019,-9.9215,0.3245,-0.3492,-9.7663,0.8168,1.8601,0.2725,-1.1029,0.5232,0.4934,0.1736,24984,2021-05-19 17:22:00:603
-5.3423,-5.7918,-2.9722,0.2008,-8.6982,-4.5246,-0.0443,-0.3784,2.4167,-1.2225,-0.9297,-0.4407,25484,2021-05-19 17:22:01:103
-0.5013,-16.9029,1.4904,0.2683,-9.4179,-2.7206,-2.8198,1.4572,-2.0606,-1.2252,1.2435,0.1687,25985,2021-05-19 17:22:01:604
2.7162,-8.6192,-6.8384,0.3486,-9.0977,-3.6443,4.5509,1.5601,0.9085,-0.6951,0.9676,0.5832,26485,2021-05-19 17:22:02:104
0.3748,-5.9785,-3.0488,0.3142,-8.5492,-4.794,0.2303,1.7876,2.6219,0.0064,-0.4105,0.314,27257,2021-05-19 17:22:02:876
0.3748,-5.9785,-3.0488,0.3142,-8.5492,-4.794,0.2303,1.7876,2.6219,0.0064,-0.4105,0.314,27258,2021-05-19 17:22:02:877
0.3748,-5.9785,-3.0488,0.3142,-8.5492,-4.794,0.2303,1.7876,2.6219,0.0064,-0.4105,0.314,27258,2021-05-19 17:22:02:877
0.3748,-5.9785,-3.0488,0.3142,-8.5492,-4.794,0.2303,1.7876,2.6219,0.0064,-0.4105,0.314,27258,2021-05-19 17:22:02:877
0.3748,-5.9785,-3.0488,0.3142,-8.5492,-4.794,0.2303,1.7876,2.6219,0.0064,-0.4105,0.314,27258,2021-05-19 17:22:02:877
0.3748,-5.9785,-3.0488,0.3142,-8.5492,-4.794,0.2303,1.7876,2.6219,0.0064,-0.4105,0.314,27258,2021-05-19 17:22:02:877
0.3748,-5.9785,-3.0488,0.3142,-8.5492,-4.794,0.2303,1.7876,2.6219,0.0064,-0.4105,0.314,27259,2021-05-19 17:22:02:878
0.3748,-5.9785,-3.0488,0.3142,-8.5492,-4.794,0.2303,1.7876,2.6219,0.0064,-0.4105,0.314,27259,2021-05-19 17:22:02:878
0.3748,-5.9785,-3.0488,0.3142,-8.5492,-4.794,0.2303,1.7876,2.6219,0.0064,-0.4105,0.314,27259,2021-05-19 17:22:02:878
0.3748,-5.9785,-3.0488,0.3142,-8.5492,-4.794,0.2303,1.7876,2.6219,0.0064,-0.4105,0.314,27259,2021-05-19 17:22:02:878
0.3748,-5.9785,-3.0488,0.3142,-8.5492,-4.794,0.2303,1.7876,2.6219,0.0064,-0.4105,0.314,27259,2021-05-19 17:22:02:878
0.3748,-5.9785,-3.0488,0.3142,-8.5492,-4.794,0.2303,1.7876,2.6219,0.0064,-0.4105,0.314,27260,2021-05-19 17:22:02:879
0.3748,-5.9785,-3.0488,0.3142,-8.5492,-4.794,0.2303,1.7876,2.6219,0.0064,-0.4105,0.314,27260,2021-05-19 17:22:02:879
0.3748,-5.9785,-3.0488,0.3142,-8.5492,-4.794,0.2303,1.7876,2.6219,0.0064,-0.4105,0.314,27260,2021-05-19 17:22:02:879
2.7138,-10.1994,1.6319,0.2995,-9.7804,-0.6508,-1.6634,1.1435,-0.5793,0.5589,-0.5963,0.4699,27393,2021-05-19 17:22:03:012
0.4346,-12.8686,-0.0511,1.1122,-9.6798,-1.1115,-0.7981,-1.2635,-0.1863,-2.3365,0.8466,-0.1374,27892,2021-05-19 17:22:03:511
4.1862,-9.955,-5.4571,1.9557,-9.1336,-2.9871,1.347,-0.4241,-1.2337,1.0934,1.1163,0.1819,28393,2021-05-19 17:22:04:012
1.7635,-10.0795,0.7555,0.1291,-9.7844,-0.648,-0.8504,0.7923,1.0157,0.2243,0.8405,0.1306,28893,2021-05-19 17:22:04:512
-0.2812,-11.6309,2.2543,-0.7398,-9.321,-2.9568,-3.205,0.3157,2.9145,-2.6288,0.6849,0.1744,29393,2021-05-19 17:22:05:012
-2.6584,-7.6567,-5.9456,-0.1822,-9.7744,-0.7733,-0.4717,1.1214,-0.1756,1.3651,-1.0826,0.1484,29892,2021-05-19 17:22:05:511
3.0371,-5.7464,-2.7517,-0.1267,-9.6512,-1.7344,1.029,3.3847,-1.1954,-0.4737,0.3286,0.3147,30392,2021-05-19 17:22:06:011
-1.9259,-1.9947,-1.5045,-5.5585,-7.4317,-3.1692,0,0,0,0.2532,-1.1615,0.1269,30893,2021-05-19 17:22:06:512
2.4601,-6.7854,-2.6225,0.2755,-9.3943,-2.8004,-3.7001,-2.4233,1.2027,0.2237,-0.0232,0.2674,31395,2021-05-19 17:22:07:014
-1.3633,-4.7886,-2.7182,0.045,-8.6572,-4.6067,-1.1909,3.761,1.7018,0.3419,0.1585,0.631,31892,2021-05-19 17:22:07:511
-3.7645,-8.9689,-1.806,0.6849,-9.4042,-2.6948,4.7662,-3.1057,5.0278,-0.6593,2.249,-0.3509,32392,2021-05-19 17:22:08:011
0.1427,-10.0125,-2.6201,1.1427,-8.7075,-4.364,-2.5181,-9.8493,-2.0674,-0.6892,0.9054,-0.1704,32892,2021-05-19 17:22:08:511
0.1905,-14.4416,8.8283,-0.1973,-9.6697,-1.621,-6.7533,5.13,-0.626,-0.2843,0.766,0.7257,33393,2021-05-19 17:22:09:012
1.4139,-10.0723,-4.0301,-0.3204,-9.801,0.0898,1.9943,-0.1264,-1.7026,0.1008,0.3694,0.0053,33893,2021-05-19 17:22:09:512
2.2708,-9.3757,-2.4048,-0.0836,-9.5949,-2.0254,-1.0521,4.1135,1.4517,0.6968,0.5898,0.3709,34392,2021-05-19 17:22:10:011
0.2001,-9.8689,-2.4,-0.505,-9.7447,-0.9773,0.6303,0.033,-1.3377,-0.0678,-0.3712,0.1113,34893,2021-05-19 17:22:10:512
-3.7621,-10.6711,-3.3981,0.7087,-8.3466,-5.0993,-3.812,-1.6322,1.651,-0.0834,-0.6787,0.3086,35396,2021-05-19 17:22:11:015
-9.1226,-17.7957,-6.5417,0.4146,-9.4325,-2.6509,-7.1437,-1.9058,-5.1334,-1.4671,1.5344,0.8158,35892,2021-05-19 17:22:11:511
-3.9084,-16.424,-5.1194,0.2481,-8.9389,-4.0255,2.9445,0.2356,-1.2387,-2.0398,0.5841,-0.0699,36393,2021-05-19 17:22:12:012
-1.2293,-18.6721,-6.6374,0.7949,-9.7477,-0.7221,-3.9923,-2.5853,1.178,1.04,1.581,0.064,36892,2021-05-19 17:22:12:511
1.5215,-9.4594,-0.542,-0.1443,-9.7988,0.3646,0.5622,0.0374,-1.4853,0.4082,0.4536,0.1032,37393,2021-05-19 17:22:13:012
-0.0371,-8.7174,-2.8546,0.2052,-8.9011,-4.1108,-1.6635,-1.5242,5.1972,-1.1179,0.2706,0.0089,37893,2021-05-19 17:22:13:512
0.3173,-12.1098,-0.0105,0.9787,-9.1567,-3.3715,-6.43,-3.0477,-5.8667,-1.0606,1.0022,-1.0505,38393,2021-05-19 17:22:14:012
-2.898,-10.3956,-4.0445,0.3523,-8.7958,-4.3221,-2.96,-4.587,-0.4989,-0.2627,-0.4291,-0.0803,38893,2021-05-19 17:22:14:512
-1.4112,-15.5764,4.9502,-2.0812,-5.9609,-7.5038,0,0,0,0.8161,-0.3633,-0.2489,39393,2021-05-19 17:22:15:012
1.8377,-14.6764,-7.6358,0.3396,-9.0663,-3.7225,2.022,0.3416,-1.1753,-1.2722,-0.9745,-0.3599,39892,2021-05-19 17:22:15:511
-3.9945,-10.6615,-2.8235,-0.1101,-9.5119,-2.3838,-5.7067,-6.4086,4.1988,-1.2539,1.029,0.2734,40392,2021-05-19 17:22:16:011
-1.0137,-17.5756,-5.5935,0.2186,-8.7957,-4.3311,-3.189,-10.5359,-1.1315,-0.4887,1.4393,-0.1326,40892,2021-05-19 17:22:16:511
0.4968,-21.0111,-3.4747,0.0039,-9.5204,-2.3522,-7.1707,0.8605,0.3674,-1.2365,0.0922,1.6365,41392,2021-05-19 17:22:17:011
-2.8908,-12.172,-0.7481,-0.0328,-9.8066,-0.0196,2.4798,1.355,1.2244,-1.0675,0.4209,-0.3221,41895,2021-05-19 17:22:17:514
-3.9467,-8.3868,-4.351,0.7855,-9.5424,-2.1203,3.9784,-1.671,-5.3752,0.9734,0.3838,-0.6874,42393,2021-05-19 17:22:18:012
-0.4343,-9.0885,0.2384,0.2312,-9.8037,0.0636,0.0482,0.2843,0.0817,0.3296,1.1467,0.0962,42893,2021-05-19 17:22:18:512
2.2636,-11.6381,0.8465,0.8691,-9.2405,-3.1668,-3.7929,-2.894,3.937,-2.209,1.7209,-0.2068,43392,2021-05-19 17:22:19:011
0.6021,-8.3342,-3.9129,-0.0534,-9.6456,-1.7693,-1.6189,-2.4373,1.5107,0.3465,0.2679,0.9534,43893,2021-05-19 17:22:19:512
0.9446,-9.8258,-4.5305,0.0552,-9.7994,-0.3741,2.3805,0.1441,-3.3159,-0.4247,0.6014,-0.233,44393,2021-05-19 17:22:20:012
4.1216,-14.5253,-7.5927,-0.0816,-9.6259,-1.8725,-0.2346,2.4172,-0.6766,0.5594,0.706,-0.4676,44892,2021-05-19 17:22:20:511
-1.0256,-9.1579,0.4445,1.00E-04,-9.8005,-0.3475,-0.5112,0.7366,-0.2665,0.0826,0.3254,0.0159,45395,2021-05-19 17:22:21:014
-1.4638,-6.5459,-1.3537,0.0719,-9.6958,-1.4684,0.1551,1.6703,-0.6974,-0.2277,0.3135,-0.1081,45989,2021-05-19 17:22:21:608
-1.4638,-6.5459,-1.3537,0.0719,-9.6958,-1.4684,0.1551,1.6703,-0.6974,-0.2277,0.3135,-0.1081,45990,2021-05-19 17:22:21:609
-1.4638,-6.5459,-1.3537,0.0719,-9.6958,-1.4684,0.1551,1.6703,-0.6974,-0.2277,0.3135,-0.1081,45990,2021-05-19 17:22:21:609
0.7388,-8.9423,2.3764,-0.8098,-9.5559,-2.0494,0,0,0,-1.4683,-0.0579,0.1385,46474,2021-05-19 17:22:22:093
0.1977,-5.8325,-1.6265,0.6343,-9.507,-2.3204,-2.0709,4.9017,-0.1,-0.4033,0.4545,0.2242,46789,2021-05-19 17:22:22:408
1.3923,-4.3768,-1.4136,0.8013,-9.6885,-1.2889,3.0113,0.8007,0.8022,1.6606,0.8265,0.7936,47290,2021-05-19 17:22:22:909
3.1232,-9.3589,1.0071,9.00E-04,-9.7932,0.5126,3.4902,0.5872,-0.3156,0.8859,1.2467,0.5172,47789,2021-05-19 17:22:23:408
-1.8398,-9.7181,-1.9786,-0.3791,-9.4785,-2.4869,-1.9837,-0.3286,4.1338,-1.0899,0.0374,0.4073,48289,2021-05-19 17:22:23:908
-3.2043,-12.5695,0.6455,-0.3154,-9.7068,-1.3594,-2.0153,-2.1948,1.6397,0.4245,0.0854,0.389,48790,2021-05-19 17:22:24:409
-3.6975,-3.7974,2.5917,-0.0907,-9.6166,-1.9192,0.4117,2.2715,-2.0546,-0.0924,0.5278,-0.0927,49289,2021-05-19 17:22:24:908
2.2947,-4.2452,-1.5404,-0.3992,-8.9555,-3.9761,-3.302,5.5575,1.0881,1.7841,0.7352,1.2606,49789,2021-05-19 17:22:25:408
1.3038,-6.7711,-1.5021,0.3166,-9.6081,-1.9378,-0.4412,1.4916,-0.92,0.1863,0.7651,0.3404,50289,2021-05-19 17:22:25:908
-1.6436,-3.7137,-0.9586,-0.431,-9.0595,-3.7297,-1.1375,5.1018,2.8861,0.7222,0.2147,1.1745,50789,2021-05-19 17:22:26:408
6.8079,-10.9869,-3.3718,3.4889,-9.0744,1.2855,0,0,0,0.7045,0.3095,0.1665,51289,2021-05-19 17:22:26:908
-0.3027,-10.2209,-0.9203,0.8026,-9.2294,-3.2164,-3.6817,-2.8865,2.57,-1.8544,0.9291,-0.0961,51790,2021-05-19 17:22:27:409
-2.0408,-8.5666,-10.2117,0.4996,-9.5009,-2.3777,2.7882,0.936,-0.3728,1.1931,0.2514,-0.463,52292,2021-05-19 17:22:27:911
1.0307,-7.6448,-2.0527,0.245,-9.5006,-2.4187,1.4554,1.4118,-1.1429,-0.4168,0.2214,0.3517,53049,2021-05-19 17:22:28:668
1.0307,-7.6448,-2.0527,0.245,-9.5006,-2.4187,1.4554,1.4118,-1.1429,-0.4168,0.2214,0.3517,53050,2021-05-19 17:22:28:669
1.0307,-7.6448,-2.0527,0.245,-9.5006,-2.4187,1.4554,1.4118,-1.1429,-0.4168,0.2214,0.3517,53050,2021-05-19 17:22:28:669
1.0307,-7.6448,-2.0527,0.245,-9.5006,-2.4187,1.4554,1.4118,-1.1429,-0.4168,0.2214,0.3517,53050,2021-05-19 17:22:28:669
1.4234,-5.9186,-1.5811,1.6067,-9.3261,-2.5717,0,0,0,-0.0235,0.4065,0.5481,53507,2021-05-19 17:22:29:126
-0.3314,-9.2919,4.9382,2.0083,-9.5062,1.3305,0,0,0,-0.4887,0.8509,-0.3464,53900,2021-05-19 17:22:29:519
-2.3904,-8.0758,0.6455,0.7459,-9.2766,3.0916,-0.03,-2.3103,-1.7466,-0.0399,-0.0829,0.0374,54373,2021-05-19 17:22:29:992
-2.9483,-11.3868,3.8465,-1.5931,-9.2455,-2.8554,-3.5533,-1.3137,0.4865,-3.0235,1.6314,0.3054,54553,2021-05-19 17:22:30:172
-2.0695,-8.904,-0.5563,1.9507,-9.5993,-0.4676,0.2046,1.1648,-2.6022,-0.9186,1.2419,0.3657,55289,2021-05-19 17:22:30:908
-2.0695,-8.904,-0.5563,1.9507,-9.5993,-0.4676,0.2046,1.1648,-2.6022,-0.9186,1.2419,0.3657,55290,2021-05-19 17:22:30:909
-2.0695,-8.904,-0.5563,1.9507,-9.5993,-0.4676,0.2046,1.1648,-2.6022,-0.9186,1.2419,0.3657,55290,2021-05-19 17:22:30:909
2.2828,-9.6512,0.9805,-3.6874,-9.0565,-0.744,0,0,0,0.3242,1.1091,-0.0072,55681,2021-05-19 17:22:31:300
2.2828,-9.6512,0.9805,-3.6874,-9.0565,-0.744,0,0,0,0.3242,1.1091,-0.0072,55681,2021-05-19 17:22:31:300
2.2828,-9.6512,0.9805,-3.6874,-9.0565,-0.744,0,0,0,0.3242,1.1091,-0.0072,55682,2021-05-19 17:22:31:301
2.2828,-9.6512,0.9805,-3.6874,-9.0565,-0.744,0,0,0,0.3242,1.1091,-0.0072,55682,2021-05-19 17:22:31:301
2.2828,-9.6512,0.9805,-3.6874,-9.0565,-0.744,0,0,0,0.3242,1.1091,-0.0072,55682,2021-05-19 17:22:31:301
2.2828,-9.6512,0.9805,-3.6874,-9.0565,-0.744,0,0,0,0.3242,1.1091,-0.0072,55682,2021-05-19 17:22:31:301
3.1543,-9.9742,-0.0272,-0.1991,-9.8027,-0.194,0,0,0,-0.5568,0.7294,-0.182,56131,2021-05-19 17:22:31:750
3.1543,-9.9742,-0.0272,-0.1991,-9.8027,-0.194,0,0,0,-0.5568,0.7294,-0.182,56132,2021-05-19 17:22:31:751
6.1493,-14.6285,-0.5252,1.2941,-8.5826,-4.5644,0,0,0,2.6127,0.4229,-0.2335,56636,2021-05-19 17:22:32:255
0.291,-9.979,-0.3984,-0.3729,-9.7904,-0.4235,0.7345,-0.1938,0.1439,-0.2698,0.3097,-0.0869,56842,2021-05-19 17:22:32:461
1.9502,-7.9729,-2.8116,0.6308,-9.535,-2.2036,0.5552,-0.0104,0.349,-0.2462,0.104,-0.0829,57340,2021-05-19 17:22:32:959
-1.5523,-5.6507,-2.2825,-3.4238,-8.4716,-3.5608,0.5847,1.3153,-0.056,0.6225,0.7458,0.7214,57840,2021-05-19 17:22:33:459
3.4442,-8.5331,0.8345,0.715,-9.4811,-2.4017,-0.7099,-3.1459,1.7609,0.2947,1.2632,-0.0197,58340,2021-05-19 17:22:33:959
0.315,-9.7349,-2.5388,0.4612,-9.1477,-3.5039,-6.9012,-0.5074,0.5992,-1.4628,1.1576,-0.4934,58840,2021-05-19 17:22:34:459
3.6308,-9.8521,2.0602,-0.8406,-9.6679,-1.4124,-7.8519,0.7141,-0.1799,0.1863,0.2955,0.8778,59340,2021-05-19 17:22:34:959
3.1567,-9.7469,-2.1987,-0.2896,-9.7812,0.6436,1.3684,1.0305,-1.6249,0.5125,0.4319,0.2579,59839,2021-05-19 17:22:35:458
-2.2134,-4.384,-0.676,-1.6348,-9.3537,-2.4509,0,0,0,0.8399,0.6409,0.8903,60342,2021-05-19 17:22:35:961
0.8225,-6.2204,-4.9161,0.4305,-9.0877,-3.6603,-1.0494,0.0869,-0.6549,-0.2042,1.3266,0.4474,60839,2021-05-19 17:22:36:458
-1.416,-2.4568,-0.9156,-0.382,-9.3721,-2.8615,-1.2392,6.7848,2.5732,0.8279,-0.1962,0.6415,61341,2021-05-19 17:22:36:960
-3.4391,-3.5653,-1.1596,0.3096,-9.4015,-2.7723,2.6575,2.1905,0.1799,-0.0831,0.045,0.3239,61842,2021-05-19 17:22:37:461
0.1499,-0.137,0.9829,0.3698,-9.7662,-0.8094,-2.2782,8.0517,2.0095,2.1396,-0.1735,0.1173,62340,2021-05-19 17:22:37:959
3.2788,-3.4289,-3.8435,0.1163,-9.1821,-3.4418,3.2049,-0.0473,-1.7411,-1.4393,-0.8027,-0.201,62839,2021-05-19 17:22:38:458
-4.526,-10.8123,-5.1673,0.0079,-9.5842,-2.077,-6.9214,-2.229,-0.3091,0.8086,0.3326,-0.4968,63340,2021-05-19 17:22:38:959
-2.9171,-7.9753,1.1794,3.4522,-8.738,-2.8108,0,0,0,0.5418,0.4555,-0.0466,63840,2021-05-19 17:22:39:459
-2.9171,-7.9753,1.1794,3.4522,-8.738,-2.8108,0,0,0,0.5418,0.4555,-0.0466,63842,2021-05-19 17:22:39:461
-2.9171,-7.9753,1.1794,3.4522,-8.738,-2.8108,0,0,0,0.5418,0.4555,-0.0466,63864,2021-05-19 17:22:39:483
0.7842,-9.2441,0.0159,1.6225,-9.6714,-0.0467,0,0,0,0.4546,1.2955,0.1153,64610,2021-05-19 17:22:40:229
0.7842,-9.2441,0.0159,1.6225,-9.6714,-0.0467,0,0,0,0.4546,1.2955,0.1153,64611,2021-05-19 17:22:40:230
0.7842,-9.2441,0.0159,1.6225,-9.6714,-0.0467,0,0,0,0.4546,1.2955,0.1153,64612,2021-05-19 17:22:40:231
0.7842,-9.2441,0.0159,1.6225,-9.6714,-0.0467,0,0,0,0.4546,1.2955,0.1153,64612,2021-05-19 17:22:40:231
0.7842,-9.2441,0.0159,1.6225,-9.6714,-0.0467,0,0,0,0.4546,1.2955,0.1153,64613,2021-05-19 17:22:40:232
0.7842,-9.2441,0.0159,1.6225,-9.6714,-0.0467,0,0,0,0.4546,1.2955,0.1153,64613,2021-05-19 17:22:40:232
-1.2485,-10.9582,2.7858,-2.3665,-9.4805,0.8306,0,0,0,-0.5907,0.0509,-0.3572,64729,2021-05-19 17:22:40:348
2.4984,-5.3465,-3.1947,-0.8117,-8.9238,-3.9846,1.4284,0.3698,0.024,-0.188,0.8075,0.4264,65326,2021-05-19 17:22:40:945
2.4984,-5.3465,-3.1947,-0.8117,-8.9238,-3.9846,1.4284,0.3698,0.024,-0.188,0.8075,0.4264,65327,2021-05-19 17:22:40:946
3.3123,-6.309,-3.4989,3.5005,-8.9843,-1.7884,0,0,0,-0.0017,0.0336,0.2929,65731,2021-05-19 17:22:41:350
3.3123,-6.309,-3.4989,3.5005,-8.9843,-1.7884,0,0,0,-0.0017,0.0336,0.2929,65733,2021-05-19 17:22:41:352
7.229,-10.9893,-4.3917,-1.8113,-9.3112,2.4884,0,0,0,-0.0615,0.5896,0.485,66347,2021-05-19 17:22:41:966
7.229,-10.9893,-4.3917,-1.8113,-9.3112,2.4884,0,0,0,-0.0615,0.5896,0.485,66348,2021-05-19 17:22:41:967
7.229,-10.9893,-4.3917,-1.8113,-9.3112,2.4884,0,0,0,-0.0615,0.5896,0.485,66348,2021-05-19 17:22:41:967
7.229,-10.9893,-4.3917,-1.8113,-9.3112,2.4884,0,0,0,-0.0615,0.5896,0.485,66348,2021-05-19 17:22:41:967
2.5367,-1.4752,0.454,-1.7673,-1.824,-9.4721,0,0,0,2.4535,0.6144,0.5044,66817,2021-05-19 17:22:42:436
2.5367,-1.4752,0.454,-1.7673,-1.824,-9.4721,0,0,0,2.4535,0.6144,0.5044,67259,2021-05-19 17:22:42:878
-1.8182,-5.8708,-2.601,-1.3281,-9.2551,-2.9579,-0.4534,0.3758,0.5071,0.9044,0.7136,0.6519,67823,2021-05-19 17:22:43:442
-0.8031,-5.3249,-4.2434,1.2466,-9.4092,-2.4665,-0.0862,1.5102,-1.8102,-0.999,0.6519,-0.2115,68264,2021-05-19 17:22:43:883
0.6191,-2.8663,-2.814,-1.8235,-9.2765,-2.6063,0.0238,8.9325,2.2343,1.5994,0.3025,0.0585,68758,2021-05-19 17:22:44:377
-0.8509,-7.3816,-3.4866,-0.3344,-9.666,-1.6208,-0.0312,2.0513,-0.156,0.6469,-0.3551,0.2666,69258,2021-05-19 17:22:44:877
-0.8318,-1.0274,0.114,0.4279,-9.2035,-3.3591,-1.1424,8.6146,2.8614,0.9228,-0.1365,0.8966,69759,2021-05-19 17:22:45:378
1.7874,-6.8477,-4.5664,0.4636,-9.559,-2.1403,0.288,1.9021,-2.1906,0.4897,-0.4954,0.2515,70259,2021-05-19 17:22:45:878
-1.3585,-1.9899,-0.2477,-0.2966,-9.3345,-2.9916,-1.7943,3.3473,1.9698,0.493,0.2599,0.646,70758,2021-05-19 17:22:46:377
-0.9993,-8.6527,-0.1543,0.3337,-9.7965,-0.2972,-1.018,1.5094,-1.2133,1.1866,1.0911,0.412,71260,2021-05-19 17:22:46:879
-1.6627,-8.5211,-2.0097,-0.3919,-8.937,-4.0183,-0.9355,1.2945,2.5052,-0.1552,0.5007,0.7323,71758,2021-05-19 17:22:47:377
-1.5284,-9.0455,0.7603,-0.3516,-9.7542,-0.9498,0.0414,-0.2184,3.3411,1.1194,1.3882,0.1773,72260,2021-05-19 17:22:47:879
-0.9012,-10.9199,-1.4447,0.1557,-9.3595,-2.9235,0.5317,0.526,-0.1909,-1.9723,0.8202,-0.4699,72759,2021-05-19 17:22:48:378
0.8058,-13.5177,-3.0727,0.1952,-9.7058,-1.389,6.2222,-2.462,-6.844,0.4058,0.7158,0.3618,73258,2021-05-19 17:22:48:877
2.831,-10.3717,3.3102,0.3821,-9.2392,-3.2653,-2.1514,-0.6692,0.7885,-2.5277,0.593,0.4554,73759,2021-05-19 17:22:49:378
4.3298,-18.5043,2.0028,0.1123,-9.6027,-1.9863,-3.8048,-2.4176,3.0441,0.5502,0.2726,0.5316,74259,2021-05-19 17:22:49:878
-2.103,-9.1364,-1.672,-2.3585,-9.5033,-0.5436,0,0,0,1.6206,0.9451,-0.5484,75059,2021-05-19 17:22:50:678
-2.103,-9.1364,-1.672,-2.3585,-9.5033,-0.5436,0,0,0,1.6206,0.9451,-0.5484,75065,2021-05-19 17:22:50:684
-2.103,-9.1364,-1.672,-2.3585,-9.5033,-0.5436,0,0,0,1.6206,0.9451,-0.5484,75065,2021-05-19 17:22:50:684
-2.103,-9.1364,-1.672,-2.3585,-9.5033,-0.5436,0,0,0,1.6206,0.9451,-0.5484,75065,2021-05-19 17:22:50:684
-2.103,-9.1364,-1.672,-2.3585,-9.5033,-0.5436,0,0,0,1.6206,0.9451,-0.5484,75066,2021-05-19 17:22:50:685
-2.103,-9.1364,-1.672,-2.3585,-9.5033,-0.5436,0,0,0,1.6206,0.9451,-0.5484,75066,2021-05-19 17:22:50:685
-2.103,-9.1364,-1.672,-2.3585,-9.5033,-0.5436,0,0,0,1.6206,0.9451,-0.5484,75066,2021-05-19 17:22:50:685
-2.103,-9.1364,-1.672,-2.3585,-9.5033,-0.5436,0,0,0,1.6206,0.9451,-0.5484,75066,2021-05-19 17:22:50:685
-2.103,-9.1364,-1.672,-2.3585,-9.5033,-0.5436,0,0,0,1.6206,0.9451,-0.5484,75066,2021-05-19 17:22:50:685
-2.103,-9.1364,-1.672,-2.3585,-9.5033,-0.5436,0,0,0,1.6206,0.9451,-0.5484,75066,2021-05-19 17:22:50:685
0.3772,-9.3685,-0.827,-0.1036,-9.767,-0.8753,0,0,0,0.37,0.3572,-0.1106,75090,2021-05-19 17:22:50:709
1.0116,-7.8532,-0.9514,-1.6081,-9.0629,-3.3835,0,0,0,0.6206,0.4456,0.4563,75590,2021-05-19 17:22:51:209
1.0116,-7.8532,-0.9514,-1.6081,-9.0629,-3.3835,0,0,0,0.6206,0.4456,0.4563,75592,2021-05-19 17:22:51:211
1.0116,-7.8532,-0.9514,-1.6081,-9.0629,-3.3835,0,0,0,0.6206,0.4456,0.4563,75915,2021-05-19 17:22:51:534
-0.9299,-10.7357,-1.3298,3.2351,-9.2448,0.4883,0,0,0,0.5453,0.6478,-0.1901,75945,2021-05-19 17:22:51:564
2.6563,-5.8469,-2.8953,-0.1628,-8.9877,-3.9198,0,0,0,0.7524,0.5525,0.0661,76445,2021-05-19 17:22:52:064
-0.2955,-6.4406,-1.9283,1.7701,-9.6433,-0.2096,0.0896,3.3459,-2.1162,0.4259,0.0469,0.0464,76945,2021-05-19 17:22:52:564
-0.2955,-6.4406,-1.9283,1.7701,-9.6433,-0.2096,0.0896,3.3459,-2.1162,0.4259,0.0469,0.0464,76948,2021-05-19 17:22:52:567
-0.2955,-6.4406,-1.9283,1.7701,-9.6433,-0.2096,0.0896,3.3459,-2.1162,0.4259,0.0469,0.0464,77323,2021-05-19 17:22:52:942
-2.5579,-2.263,-1.2099,-6.6887,-5.9237,-4.0425,0,0,0,0.7066,-0.3448,1.069,77659,2021-05-19 17:22:53:278
3.4442,-6.5698,-4.0639,0.9576,-9.4216,-2.547,0.8183,3.5065,1.009,-0.4456,0.9963,0.4658,78158,2021-05-19 17:22:53:777
-1.4112,-5.9785,-2.2466,-2.3476,-9.2475,-2.268,1.3877,0.7711,-1.157,1.6264,1.1864,0.0402,78659,2021-05-19 17:22:54:278
-1.6436,-11.4132,-2.4215,-0.5715,-9.7247,-1.1289,-1.6668,-0.5855,-0.8689,0.5756,0.8656,-0.0525,79192,2021-05-19 17:22:54:811
-2.7278,-10.5775,-1.258,0.0301,-9.33,-3.0199,-3.2199,-0.4004,5.8732,-2.3586,1.7988,0.2152,79659,2021-05-19 17:22:55:278
-0.5614,-5.0207,-2.4215,-0.4066,-9.6215,-1.8523,-6.9068,-3.9222,1.3288,0.3499,0.8349,0.2223,80158,2021-05-19 17:22:55:777
0.9398,-9.6368,-1.0567,-0.3859,-9.7841,0.5419,0.4522,0.1929,-1.2912,0.4511,0.779,0.2619,80659,2021-05-19 17:22:56:278
-1.8326,-8.7724,-2.8666,-1.6381,-9.6226,-0.9449,1.7168,0.8164,1.9328,-0.7639,-0.215,0.1022,81159,2021-05-19 17:22:56:778
-1.0232,-8.5379,-0.14,-0.9151,-9.7603,-0.2632,-0.3698,1.0246,-0.0923,0.2617,0.6394,-0.1735,81659,2021-05-19 17:22:57:278
1.0068,-5.5857,-3.0727,-0.3609,-9.4925,-2.4355,3.1663,2.2721,1.4437,-1.5384,-0.8242,0.172,82159,2021-05-19 17:22:57:778
1.0235,-8.0088,1.0238,-0.3227,-9.4766,-2.502,2.6367,4.4366,1.5306,2.0192,-1.464,0.1506,82659,2021-05-19 17:22:58:278
3.0754,-6.2827,-1.2724,-0.5234,-9.3509,-2.908,3.4532,1.6418,0.8788,-0.2242,-0.2869,0.4328,83159,2021-05-19 17:22:58:778
-0.5064,-10.0388,-2.9387,0.165,-9.6858,-1.5261,3.733,0.7074,1.5177,1.5572,0.4251,0.1584,83659,2021-05-19 17:22:59:278
1.3397,-7.4342,-3.5659,0.0799,-9.5057,-2.4094,0.5042,2.3203,-0.4727,-0.0664,0.4113,0.4455,84159,2021-05-19 17:22:59:778
-1.5978,-2.1885,-2.9889,0.4418,-8.8538,-4.1935,-2.2,3.6912,1.8904,1.607,0.9186,0.9451,84659,2021-05-19 17:23:00:278
4.7465,-9.6727,-1.0567,-0.245,-9.8029,0.1149,3.1225,0.3534,-0.2883,0.8527,0.5466,0.523,85159,2021-05-19 17:23:00:778
-2.0527,-8.5762,-3.4101,-0.5165,-9.1222,-3.5622,-0.8886,0.4401,0.5652,-0.6374,0.5253,0.4835,85658,2021-05-19 17:23:01:277
-0.2692,-11.3079,-4.8084,-0.4867,-9.5891,-1.9958,-0.23,0.0868,-2.1906,0.6237,-0.1069,0.1833,86159,2021-05-19 17:23:01:778
-1.191,-6.4119,-4.7127,-0.1113,-9.607,-1.9654,-0.3558,2.2893,-1.635,-0.4398,0.6354,-0.086,86659,2021-05-19 17:23:02:278
-4.2553,-7.0367,-3.8315,0.0552,-8.2096,-5.3638,-3.3034,1.5452,1.6065,0.0272,-0.2947,0.348,87159,2021-05-19 17:23:02:778
-5.3901,-17.9297,-1.6528,1.4394,-9.1896,-3.1063,2.442,-7.9715,3.0688,-1.5697,0.4791,-0.2066,87662,2021-05-19 17:23:03:281
-0.5037,-8.2863,-2.5316,0.3442,-8.2072,-5.3567,0.3001,-6.535,-4.3078,-1.0035,0.5568,-0.5375,88159,2021-05-19 17:23:03:778
8.9719,-26.0578,-2.2298,-0.4435,-9.6313,-1.7921,-8.8649,8.9164,0.5141,-0.2045,-0.1581,0.9656,88662,2021-05-19 17:23:04:281
0.9972,-10.089,-4.7629,0.0637,-9.7911,-0.549,3.2599,-0.0515,-2.5015,-1.6294,0.6386,-0.3457,89159,2021-05-19 17:23:04:778
3.1304,-11.0516,-5.2681,-1.7095,-9.09,-3.2587,0,0,0,0.6582,0.1994,0.5226,89659,2021-05-19 17:23:05:278
-0.1902,-18.6936,-9.1131,0.2326,-9.1645,-3.4827,1.2653,1.699,1.844,-0.5433,-0.6118,0.1203,90159,2021-05-19 17:23:05:778
-3.6114,-10.5033,-11.6387,0.2307,-9.6609,-1.6687,2.7104,-0.2872,-0.0182,1.5349,-0.8211,-0.2508,90659,2021-05-19 17:23:06:278
2.5654,-6.699,-4.1453,0.1535,-9.3013,-3.1037,2.4632,2.4126,-0.8733,-0.9583,-0.5291,0.1087,91158,2021-05-19 17:23:06:777
-16.2978,-13.9531,-15.4334,0.341,-9.6976,-1.4183,1.0221,-3.7079,-8.7365,1.9356,-0.8923,0.2155,91659,2021-05-19 17:23:07:278
-3.3123,2.0608,-1.4853,-0.0032,-8.229,-5.3343,-0.3178,-6.5511,0.2729,-0.4421,0.532,-0.3166,92158,2021-05-19 17:23:07:777
4.5981,-7.6591,-2.8881,0.4472,-9.7668,-0.7615,1.5036,-0.9613,-1.1021,1.4897,1.1159,0.6367,92659,2021-05-19 17:23:08:278
-0.3601,-4.9944,-3.1493,-0.6528,-9.0094,-3.8177,-0.7122,4.8431,1.6316,1.0765,1.0161,0.6612,93159,2021-05-19 17:23:08:778
2.8334,-9.8258,0.8752,0.1585,-9.7949,-0.453,-2.8034,0.7352,-0.9829,0.7494,2.1671,-0.3772,93659,2021-05-19 17:23:09:278
0.2623,-12.7705,-2.7278,0.8465,-9.3484,-2.8392,-5.1975,-1.7362,0.6261,-2.0356,1.5465,-0.1095,94159,2021-05-19 17:23:09:778
2.1296,-17.8125,0.856,0.1204,-9.7965,-0.4305,3.3787,-3.6006,-1.3814,0.4665,1.0487,0.1698,94658,2021-05-19 17:23:10:277
-3.3673,-15.5836,-0.6712,0.3301,-9.3274,-3.0101,-4.7585,-3.9311,-0.6984,-2.0721,0.9027,-0.1419,95159,2021-05-19 17:23:10:778
-0.1807,-7.0415,-2.0384,0.0607,-9.4863,-2.4854,0.3503,3.0569,1.0045,1.0937,0.4351,0.6156,95659,2021-05-19 17:23:11:278
2.3572,-12.6197,-3.9511,0.4171,-9.4174,-2.7036,-0.2296,-1.3899,2.7977,0.7414,-0.4313,-0.1883,96350,2021-05-19 17:23:11:969
2.3572,-12.6197,-3.9511,0.4171,-9.4174,-2.7036,-0.2296,-1.3899,2.7977,0.7414,-0.4313,-0.1883,96351,2021-05-19 17:23:11:970
-0.0347,-5.2842,-1.8876,-4.1059,-8.44,-2.8424,0,0,0,0.2488,0.0228,0.3494,96409,2021-05-19 17:23:12:028
-7.2841,-8.327,-19.6205,1.414,-9.6989,0.3208,2.8167,-10.8492,0.2518,2.729,-2.4915,-0.5003,96908,2021-05-19 17:23:12:527
-7.3199,-16.3283,-6.6517,0.4539,-9.4084,-2.729,0,0,0,-0.7255,0.9467,-0.4942,97409,2021-05-19 17:23:13:028
1.5455,-15.5453,4.4186,0.2448,-9.567,-2.1409,0.4836,-3.283,-2.24,0.5038,0.7176,0.3912,97908,2021-05-19 17:23:13:527
2.2158,-9.8641,-0.6808,1.3357,-9.6937,-0.6464,0.4908,-0.1123,-0.1929,0.2535,0.4441,0.0113,98409,2021-05-19 17:23:14:028
0.8345,-9.2752,-5.0333,0.1262,-9.4624,-2.5724,-1.7131,2.1238,0.2698,0.118,0.1901,0.2981,98908,2021-05-19 17:23:14:527
6.6568,-19.7925,-5.6821,-0.1648,-8.9081,-4.0974,0.8181,2.2753,0.3923,-0.5055,0.7863,0.4073,99408,2021-05-19 17:23:15:027
3.6165,-4.0011,1.876,-0.3368,-9.3407,-2.968,3.8092,2.8851,3.3524,0.9841,0.3331,1.0962,99938,2021-05-19 17:23:15:557
0.3867,-23.1419,-7.3747,0.254,-9.3075,-3.0782,3.0431,3.753,2.2008,-1.3106,0.7194,-0.3859,100412,2021-05-19 17:23:16:031
3.3482,-10.1659,-4.7533,-0.4069,-9.6635,-1.6188,2.7334,1.9478,-2.0056,1.0664,1.0769,0.3935,100908,2021-05-19 17:23:16:527
1.2368,-9.2321,1.5526,-0.336,-9.8009,-0.0217,1.8119,0.6188,1.6013,0.086,1.4538,0.1494,101408,2021-05-19 17:23:17:027
-1.914,-6.2563,-1.8589,0.5812,-9.1827,-3.3927,2.558,-0.9919,4.1054,-0.4609,-0.1219,-0.2509,101911,2021-05-19 17:23:17:530
16.8221,-24.2767,1.919,0.2036,-9.1274,-3.5804,-2.5302,-1.0081,0.88,-0.1651,0.6889,-0.5527,102411,2021-05-19 17:23:18:030
-1.282,-3.084,-0.9682,0.3176,-8.7602,-4.3964,-1.9414,0.925,1.734,-0.162,0.365,-0.4062,102911,2021-05-19 17:23:18:530
-7.5353,-9.4211,1.6989,2.1826,-9.4923,-1.1411,-0.5235,0.1941,2.2107,-0.2297,-0.821,0.7741,103411,2021-05-19 17:23:19:030
-0.2907,-3.8548,-1.6863,0.3893,-9.1357,-3.5436,-1.2693,2.2848,1.198,0.795,-0.1602,0.3184,103908,2021-05-19 17:23:19:527
2.3692,-6.2731,-7.509,0.1832,-9.2973,-3.1141,1.7092,4.7331,0.7131,0.1804,0.567,0.1506,104409,2021-05-19 17:23:20:028
2.0698,-7.9059,-3.2282,-0.617,-9.3877,-2.7677,2.6343,2.1626,-0.3697,1.3649,0.6512,0.0618,104909,2021-05-19 17:23:20:528
1.5814,-9.6464,1.2679,-0.5334,-9.7753,-0.5733,-1.8249,0.3964,-1.4644,0.2915,0.5012,0.148,105409,2021-05-19 17:23:21:028
-0.8318,-10.3214,-0.1711,-0.0739,-9.639,-1.8042,-1.7809,-0.9114,0.3473,-2.0182,0.9002,-0.4661,105908,2021-05-19 17:23:21:527
-6.2737,-17.9659,-0.2572,-0.15,-9.6476,-1.7529,-3.1752,-3.8096,0.2414,0.5403,1.3802,-0.0388,106409,2021-05-19 17:23:22:028
1.1865,-9.7708,-2.2155,-0.3105,-9.7977,0.2817,1.3471,0.2848,-0.9923,0.4432,0.713,0.1917,106909,2021-05-19 17:23:22:528
-1.6699,-7.5203,-3.0535,0.1942,-8.9856,-3.9233,-2.7743,1.6661,1.9387,-0.0884,0.2532,0.4398,107409,2021-05-19 17:23:23:028
1.0403,-11.3964,2.161,0.0605,-9.5802,-2.0946,-1.6695,-2.9461,-1.4433,-0.0661,1.0497,0.341,107908,2021-05-19 17:23:23:527
-1.9283,-5.0498,-1.0328,0.4348,-9.5626,-2.1304,0.771,2.506,-1.3471,-0.9172,0.604,-0.2466,108411,2021-05-19 17:23:24:030
-2.4479,-5.0402,-3.5994,0.2565,-8.297,-5.2215,-3.3301,1.9997,1.9191,-0.1025,-0.5308,0.5702,108908,2021-05-19 17:23:24:527
10.9328,-18.5261,-10.6259,0.5523,-9.227,-3.2753,-0.0253,-1.5121,7.0107,0.0203,-0.2527,0.1767,109408,2021-05-19 17:23:25:027
2.6372,-6.2228,-3.3718,0.165,-9.3441,-2.9717,-0.6788,1.4189,0.0379,0.0443,-0.0576,0.2969,110021,2021-05-19 17:23:25:640
1.0857,-6.2372,-1.5284,1.2562,-9.2589,-2.9776,0,0,0,0.0127,0.1419,0.4685,110101,2021-05-19 17:23:25:720
-1.0762,-8.6097,-2.4646,0.2009,-9.5165,2.3593,0,0,0,-0.8085,-0.7211,-0.2011,110600,2021-05-19 17:23:26:219
-1.8972,-14.8128,13.2311,-0.8337,-9.2366,-3.1876,-2.728,-2.781,-5.2486,-1.1991,2.887,-0.1318,111011,2021-05-19 17:23:26:630
-0.4774,-10.3454,-1.5212,0.9538,-9.7214,-0.8689,0.5187,-0.6829,2.1224,-0.354,1.2241,0.2286,111510,2021-05-19 17:23:27:129
-3.4032,-8.1452,-1.7533,-0.8418,-9.4227,-2.5836,-1.5983,0.9789,0.0582,0.2332,0.4551,0.3732,112010,2021-05-19 17:23:27:629
-0.4582,-9.979,-4.4611,-0.9692,-9.4046,-2.6049,-0.4675,-1.3344,1.3708,-1.5775,-0.2483,-0.3648,112510,2021-05-19 17:23:28:129
-1.9403,-9.9024,-6.1609,-2.0026,-8.3486,-4.7393,1.0328,0.8371,0.4739,0.2095,0.0623,0.5488,113010,2021-05-19 17:23:28:629
-2.211,-7.6113,-5.7948,-1.8719,-8.3484,-4.7928,0.0203,0.5776,-0.4775,0.0933,-6.00E-04,-0.0791,113511,2021-05-19 17:23:29:130
-1.1647,-8.4948,-4.5736,-1.6797,-8.4754,-4.6386,0.3207,-0.2616,0.0449,0.035,0.1054,0.0367,114011,2021-05-19 17:23:29:630
-1.4231,-8.3868,-4.9926,-1.6157,-8.5327,-4.5556,-0.2297,-0.0733,-0.0146,0.0221,0.1652,0.1171,114510,2021-05-19 17:23:30:129
-2.0312,-8.5522,-4.7031,-1.8264,-8.447,-4.6349,-0.0877,-0.0863,-0.1027,0.0577,-0.1011,0.0512,115010,2021-05-19 17:23:30:629
-2.1078,-8.4948,-4.5162,-1.9865,-8.4451,-4.5721,-0.0812,0.0142,0.0594,0.0163,-0.071,-0.0267,115511,2021-05-19 17:23:31:130
-1.8829,-8.4757,-4.6409,-1.9101,-8.4563,-4.5839,-0.0479,0.0361,0.0317,-0.0194,0.0281,-0.0017,116011,2021-05-19 17:23:31:630
-0.8342,-6.5889,-5.517,-0.4458,-8.6495,-4.5998,-0.6465,1.8844,-0.3454,-0.2857,0.5412,-0.2315,116510,2021-05-19 17:23:32:129
0.1786,-8.7174,-1.1572,-0.173,-9.7316,-1.1988,-0.8051,0.7287,-0.1383,0.8152,-0.7341,0.1445,117010,2021-05-19 17:23:32:629
-3.0894,-8.8322,-1.2314,-1.5471,-9.1967,-3.0329,-2.7387,0.4135,3.7529,-1.2816,-0.022,0.4774,117511,2021-05-19 17:23:33:130
-0.8821,-9.4427,2.417,-0.2562,-9.5485,-2.2204,-5.7827,-0.9221,1.506,0.7466,2.0711,-0.4138,118010,2021-05-19 17:23:33:629
4.6125,-10.197,-2.2585,1.8241,-8.3273,-4.8476,1.8642,-5.68,5.0748,-1.0042,1.2721,-1.0065,118510,2021-05-19 17:23:34:129
0.6718,-8.1595,-5.5792,-0.0931,-9.2202,-3.3392,2.697,0.9376,4.3477,-1.1415,0.7633,1.2397,119010,2021-05-19 17:23:34:629
1.852,-14.4918,2.5487,0.6019,-8.9573,-3.9465,-1.3652,-3.5262,-9.7379,-1.112,0.5913,0.6528,119511,2021-05-19 17:23:35:130
-6.6135,-12.7537,1.1841,-0.0504,-9.193,-3.4141,-7.9919,-4.8402,2.5438,-2.8175,0.6383,-0.0214,120013,2021-05-19 17:23:35:632
-4.7557,-9.6224,-5.5935,-0.7341,-9.5681,-2.0204,-4.8337,0.0035,0.8492,0.0614,0.3567,0.3606,120511,2021-05-19 17:23:36:130
-0.7504,-7.2138,-1.0663,-0.117,-9.8059,-0.0051,0.8514,0.244,-1.7619,-0.9205,0.2234,0.1486,121010,2021-05-19 17:23:36:629
-6.4196,-10.7213,5.3043,1.0941,-9.2916,-2.9392,4.5681,6.976,-1.3909,3.1578,0.3045,-2.2968,121511,2021-05-19 17:23:37:130
2.2062,-8.8083,-5.2202,-0.0821,-9.1549,-3.5144,3.4124,1.18,-0.659,0.1245,-0.9267,0.1216,122010,2021-05-19 17:23:37:629
-3.597,-8.2385,5.4718,0.3222,-9.5448,-2.228,-1.4387,-1.7961,-14.3952,-1.355,1.2513,-0.0933,122511,2021-05-19 17:23:38:130
-2.7087,-2.167,-3.9224,0.6069,-7.9655,-5.688,0.007,-9.848,0.3395,0.0846,-0.0504,-0.2732,123011,2021-05-19 17:23:38:630
3.9251,-12.1911,-0.9036,0.8874,-9.7105,-1.0437,0.8874,-0.0456,0.0317,1.1899,1.4228,0.1611,123510,2021-05-19 17:23:39:129
0.1714,-8.5235,-2.3064,-0.7677,-8.315,-5.1421,0.4515,-0.1336,4.2889,-1.1432,-0.4952,0.8222,124011,2021-05-19 17:23:39:630
0.947,-12.7944,4.2772,-0.3147,-9.6549,-1.6897,1.1672,3.1515,4.043,0.6982,0.9459,-0.1188,124510,2021-05-19 17:23:40:129
1.4617,-9.9526,-1.3226,-0.0675,-9.8064,0.018,1.5399,-0.0147,-1.3257,0.5342,0.751,0.2527,125168,2021-05-19 17:23:40:787
1.4617,-9.9526,-1.3226,-0.0675,-9.8064,0.018,1.5399,-0.0147,-1.3257,0.5342,0.751,0.2527,125168,2021-05-19 17:23:40:787
1.4617,-9.9526,-1.3226,-0.0675,-9.8064,0.018,1.5399,-0.0147,-1.3257,0.5342,0.751,0.2527,125169,2021-05-19 17:23:40:788
1.4617,-9.9526,-1.3226,-0.0675,-9.8064,0.018,1.5399,-0.0147,-1.3257,0.5342,0.751,0.2527,125169,2021-05-19 17:23:40:788
1.4617,-9.9526,-1.3226,-0.0675,-9.8064,0.018,1.5399,-0.0147,-1.3257,0.5342,0.751,0.2527,125169,2021-05-19 17:23:40:788
1.4617,-9.9526,-1.3226,-0.0675,-9.8064,0.018,1.5399,-0.0147,-1.3257,0.5342,0.751,0.2527,125169,2021-05-19 17:23:40:788
1.4617,-9.9526,-1.3226,-0.0675,-9.8064,0.018,1.5399,-0.0147,-1.3257,0.5342,0.751,0.2527,125170,2021-05-19 17:23:40:789
1.4617,-9.9526,-1.3226,-0.0675,-9.8064,0.018,1.5399,-0.0147,-1.3257,0.5342,0.751,0.2527,125170,2021-05-19 17:23:40:789
1.4617,-9.9526,-1.3226,-0.0675,-9.8064,0.018,1.5399,-0.0147,-1.3257,0.5342,0.751,0.2527,125170,2021-05-19 17:23:40:789
1.4617,-9.9526,-1.3226,-0.0675,-9.8064,0.018,1.5399,-0.0147,-1.3257,0.5342,0.751,0.2527,125170,2021-05-19 17:23:40:789
2.6922,-9.0144,-0.5252,1.7763,-9.5389,-1.4227,0,0,0,-0.3086,1.795,-0.4128,125635,2021-05-19 17:23:41:254
-2.2636,-9.5363,-3.1301,5.3018,-8.0702,-1.7129,0,0,0,-0.0127,1.4761,-0.1066,126081,2021-05-19 17:23:41:700
-0.8725,-7.7524,-2.589,-0.4897,-9.3817,-2.8132,0,0,0,-0.6548,-0.5119,0.2005,126396,2021-05-19 17:23:42:015
-2.723,-3.4265,-3.0607,0.0187,-8.9683,-3.9672,-1.0339,1.7783,2.112,0.3813,0.412,-0.4503,126821,2021-05-19 17:23:42:440
7.0496,-15.792,6.8318,0.406,-9.5192,-2.3216,-1.2419,-5.8469,4.4252,0.9833,2.0792,-0.0195,127321,2021-05-19 17:23:42:940
2.8573,-10.0316,1.555,-0.2976,-9.0707,-3.7154,-4.1449,-1.6545,-2.2596,-1.0916,0.9966,-0.036,127867,2021-05-19 17:23:43:486
-6.1732,-5.0016,2.5798,0.6841,-9.5494,-2.1239,-4.6071,-9.4442,3.8565,0.1516,1.4792,0.2085,128599,2021-05-19 17:23:44:218
-6.1732,-5.0016,2.5798,0.6841,-9.5494,-2.1239,-4.6071,-9.4442,3.8565,0.1516,1.4792,0.2085,128600,2021-05-19 17:23:44:219
4.0379,-4.5637,-1.4279,-4.0918,-6.6228,-5.9638,0.3709,0.508,-0.2863,0.4963,0.389,0.4855,128723,2021-05-19 17:23:44:342
0.8201,-4.8724,-1.4495,-0.7234,-9.6784,-1.4055,-1.3504,2.7943,-0.5499,-0.0235,0.2199,0.221,129223,2021-05-19 17:23:44:842
5.9219,-15.4639,3.8656,-0.1992,-9.7877,-0.5758,3.8208,1.3307,2.2913,2.2055,-2.5614,-0.3115,129660,2021-05-19 17:23:45:279
2.2349,-8.6312,-1.9714,0.3302,-9.0886,-3.6687,2.5047,2.4628,1.4422,-0.0064,1.4282,0.3899,130159,2021-05-19 17:23:45:778
-4.1309,-15.0664,-18.4427,0.4087,-9.6943,-1.4229,3.6369,0.0125,0.7928,2.0816,0.8611,-0.4769,130658,2021-05-19 17:23:46:277
1.8042,-9.711,-4.6672,0.039,-9.805,0.1757,6.556,1.1057,-2.1188,0.1878,0.2937,0.4647,131159,2021-05-19 17:23:46:778
0.6141,-8.1811,-2.9794,-0.4334,-8.8793,-4.1401,-2.0795,1.3762,1.4972,0.4655,0.3993,-0.0353,131659,2021-05-19 17:23:47:278
1.0307,-11.8753,9.3814,0.1184,-9.7722,-0.8122,4.3415,-2.36,3.166,0.5495,0.5855,0.4328,132159,2021-05-19 17:23:47:778
-4.3726,-13.6397,-1.7868,0.0598,-9.8006,-0.3385,0.3376,0.2201,-1.7728,-0.9928,0.4717,-0.3005,132659,2021-05-19 17:23:48:278
0.4466,-6.8955,-2.6034,0.9977,-8.9287,-3.931,0,0,0,0.9332,0.8645,0.1909,133159,2021-05-19 17:23:48:778
1.5502,-9.0718,-0.2453,3.5526,-9.043,-1.3317,0,0,0,0.4042,1.0618,-0.3532,133659,2021-05-19 17:23:49:278
1.6101,-6.2994,-1.8494,0.7425,-8.8259,-4.2098,0.3807,-2.1562,6.6998,-2.3047,0.0531,0.3515,134159,2021-05-19 17:23:49:778
0.0565,-15.2797,-7.6214,2.9336,-9.2455,-1.4439,-5.2626,5.6162,5.1283,-0.0076,-1.1424,0.1188,134660,2021-05-19 17:23:50:279
-0.4319,-4.4871,-3.4795,1.6871,-8.199,-5.1089,-2.3474,0.5562,2.2957,-0.9325,-0.2912,-1.5309,135159,2021-05-19 17:23:50:778
-1.0666,-8.339,-3.2641,0.6112,-9.3239,-2.9768,-0.956,-1.3529,-2.0922,0.1663,-0.4455,0.1556,135659,2021-05-19 17:23:51:278
-0.2094,-9.3661,-3.4412,1.1123,-8.0805,-5.4442,-3.9546,-5.9157,0.2384,-1.8507,0.9624,-0.3198,136462,2021-05-19 17:23:52:081
-0.2094,-9.3661,-3.4412,1.1123,-8.0805,-5.4442,-3.9546,-5.9157,0.2384,-1.8507,0.9624,-0.3198,136463,2021-05-19 17:23:52:082
-0.2094,-9.3661,-3.4412,1.1123,-8.0805,-5.4442,-3.9546,-5.9157,0.2384,-1.8507,0.9624,-0.3198,136464,2021-05-19 17:23:52:083
-0.2094,-9.3661,-3.4412,1.1123,-8.0805,-5.4442,-3.9546,-5.9157,0.2384,-1.8507,0.9624,-0.3198,136464,2021-05-19 17:23:52:083
-0.2094,-9.3661,-3.4412,1.1123,-8.0805,-5.4442,-3.9546,-5.9157,0.2384,-1.8507,0.9624,-0.3198,136464,2021-05-19 17:23:52:083
-0.2094,-9.3661,-3.4412,1.1123,-8.0805,-5.4442,-3.9546,-5.9157,0.2384,-1.8507,0.9624,-0.3198,136464,2021-05-19 17:23:52:083
-0.2094,-9.3661,-3.4412,1.1123,-8.0805,-5.4442,-3.9546,-5.9157,0.2384,-1.8507,0.9624,-0.3198,136465,2021-05-19 17:23:52:084
-0.2094,-9.3661,-3.4412,1.1123,-8.0805,-5.4442,-3.9546,-5.9157,0.2384,-1.8507,0.9624,-0.3198,136465,2021-05-19 17:23:52:084
-2.3258,0.6341,-1.7773,-1.7439,-8.1121,-5.2272,0,0,0,-0.7014,0.814,0.2908,136926,2021-05-19 17:23:52:545
-2.3258,0.6341,-1.7773,-1.7439,-8.1121,-5.2272,0,0,0,-0.7014,0.814,0.2908,136926,2021-05-19 17:23:52:545
-2.3258,0.6341,-1.7773,-1.7439,-8.1121,-5.2272,0,0,0,-0.7014,0.814,0.2908,136926,2021-05-19 17:23:52:545
2.3118,-12.5504,-6.9727,1.9587,-9.5352,-1.1893,1.2544,0.702,-1.6987,1.1427,1.5566,0.1927,137334,2021-05-19 17:23:52:953
2.3118,-12.5504,-6.9727,1.9587,-9.5352,-1.1893,1.2544,0.702,-1.6987,1.1427,1.5566,0.1927,137334,2021-05-19 17:23:52:953
2.3118,-12.5504,-6.9727,1.9587,-9.5352,-1.1893,1.2544,0.702,-1.6987,1.1427,1.5566,0.1927,137334,2021-05-19 17:23:52:953
2.3118,-12.5504,-6.9727,1.9587,-9.5352,-1.1893,1.2544,0.702,-1.6987,1.1427,1.5566,0.1927,137335,2021-05-19 17:23:52:954
2.3118,-12.5504,-6.9727,1.9587,-9.5352,-1.1893,1.2544,0.702,-1.6987,1.1427,1.5566,0.1927,137335,2021-05-19 17:23:52:954
2.3118,-12.5504,-6.9727,1.9587,-9.5352,-1.1893,1.2544,0.702,-1.6987,1.1427,1.5566,0.1927,137335,2021-05-19 17:23:52:954
2.3118,-12.5504,-6.9727,1.9587,-9.5352,-1.1893,1.2544,0.702,-1.6987,1.1427,1.5566,0.1927,137335,2021-05-19 17:23:52:954
2.3118,-12.5504,-6.9727,1.9587,-9.5352,-1.1893,1.2544,0.702,-1.6987,1.1427,1.5566,0.1927,137335,2021-05-19 17:23:52:954
2.3118,-12.5504,-6.9727,1.9587,-9.5352,-1.1893,1.2544,0.702,-1.6987,1.1427,1.5566,0.1927,137336,2021-05-19 17:23:52:955
2.3118,-12.5504,-6.9727,1.9587,-9.5352,-1.1893,1.2544,0.702,-1.6987,1.1427,1.5566,0.1927,137336,2021-05-19 17:23:52:955
1.4641,-9.0215,-0.3793,0.5219,-9.6445,-1.6974,3.153,-3.8408,-1.0841,0.6272,1.3181,-0.3859,137828,2021-05-19 17:23:53:447
0.3197,-4.0681,1.0119,0.781,-9.2738,-3.0914,3.5086,0.6367,-0.3586,-0.4737,0.0751,0.2301,138328,2021-05-19 17:23:53:947
-3.8988,-0.8503,-1.3035,-8.6974,2.7767,-3.5798,0,0,0,1.5916,0.7764,1.8044,138828,2021-05-19 17:23:54:447
2.3692,-7.7309,-1.969,0.2023,-9.1078,-3.6301,2.3643,1.8179,-1.017,-0.2278,0.0895,0.2986,139330,2021-05-19 17:23:54:949
0.0275,-11.164,-2.8834,-2.4013,-9.0089,-3.0405,0,0,0,-1.4889,0.6477,0.1455,139828,2021-05-19 17:23:55:447
0.0275,-11.164,-2.8834,-2.4013,-9.0089,-3.0405,0,0,0,-1.4889,0.6477,0.1455,139830,2021-05-19 17:23:55:449
0.0275,-11.164,-2.8834,-2.4013,-9.0089,-3.0405,0,0,0,-1.4889,0.6477,0.1455,139850,2021-05-19 17:23:55:469
1.148,-10.046,-2.1293,3.0921,-9.2272,-1.212,0.6622,-0.6655,-2.2584,-2.5839,0.1692,0.1298,140350,2021-05-19 17:23:55:969
1.148,-10.046,-2.1293,3.0921,-9.2272,-1.212,0.6622,-0.6655,-2.2584,-2.5839,0.1692,0.1298,140351,2021-05-19 17:23:55:970
1.148,-10.046,-2.1293,3.0921,-9.2272,-1.212,0.6622,-0.6655,-2.2584,-2.5839,0.1692,0.1298,140351,2021-05-19 17:23:55:970
1.148,-10.046,-2.1293,3.0921,-9.2272,-1.212,0.6622,-0.6655,-2.2584,-2.5839,0.1692,0.1298,140351,2021-05-19 17:23:55:970
1.148,-10.046,-2.1293,3.0921,-9.2272,-1.212,0.6622,-0.6655,-2.2584,-2.5839,0.1692,0.1298,140352,2021-05-19 17:23:55:971
1.148,-10.046,-2.1293,3.0921,-9.2272,-1.212,0.6622,-0.6655,-2.2584,-2.5839,0.1692,0.1298,140352,2021-05-19 17:23:55:971
1.148,-10.046,-2.1293,3.0921,-9.2272,-1.212,0.6622,-0.6655,-2.2584,-2.5839,0.1692,0.1298,140352,2021-05-19 17:23:55:971
1.148,-10.046,-2.1293,3.0921,-9.2272,-1.212,0.6622,-0.6655,-2.2584,-2.5839,0.1692,0.1298,140352,2021-05-19 17:23:55:971
1.148,-10.046,-2.1293,3.0921,-9.2272,-1.212,0.6622,-0.6655,-2.2584,-2.5839,0.1692,0.1298,140352,2021-05-19 17:23:55:971
1.148,-10.046,-2.1293,3.0921,-9.2272,-1.212,0.6622,-0.6655,-2.2584,-2.5839,0.1692,0.1298,140352,2021-05-19 17:23:55:971
1.148,-10.046,-2.1293,3.0921,-9.2272,-1.212,0.6622,-0.6655,-2.2584,-2.5839,0.1692,0.1298,140353,2021-05-19 17:23:55:972
1.148,-10.046,-2.1293,3.0921,-9.2272,-1.212,0.6622,-0.6655,-2.2584,-2.5839,0.1692,0.1298,140353,2021-05-19 17:23:55:972
1.148,-10.046,-2.1293,3.0921,-9.2272,-1.212,0.6622,-0.6655,-2.2584,-2.5839,0.1692,0.1298,140354,2021-05-19 17:23:55:973
1.148,-10.046,-2.1293,3.0921,-9.2272,-1.212,0.6622,-0.6655,-2.2584,-2.5839,0.1692,0.1298,140355,2021-05-19 17:23:55:974
1.148,-10.046,-2.1293,3.0921,-9.2272,-1.212,0.6622,-0.6655,-2.2584,-2.5839,0.1692,0.1298,140355,2021-05-19 17:23:55:974
-2.5603,-9.2154,-2.1389,3.3574,-9.1571,-1.0232,0.7459,-0.887,-0.5045,-2.4652,0.9885,0.3294,140568,2021-05-19 17:23:56:187
7.1142,-15.7226,-9.7546,0.7832,-9.5708,-1.989,3.4263,0.1619,-3.323,1.4127,1.4439,0.2911,141068,2021-05-19 17:23:56:687
-0.7385,-9.2632,-0.1304,0.8273,-9.7122,1.0768,1.2163,-0.2463,-1.1296,0.525,0.8747,0.2223,141574,2021-05-19 17:23:57:193
-2.1532,-8.5594,-1.6146,-1.4076,-9.5683,-1.6237,1.6465,0.6347,2.4596,-2.3205,0.9409,0.3189,142068,2021-05-19 17:23:57:687
-0.5399,-4.8269,3.8776,-1.0333,-9.5391,-2.0269,-4.3515,-6.8547,1.1389,-0.3525,0.8378,0.7063,142569,2021-05-19 17:23:58:188
4.0522,-10.386,-2.2825,-0.7185,-9.7761,0.287,2.4409,0.2794,-2.1982,0.1113,0.9772,-0.1523,143068,2021-05-19 17:23:58:687
1.0499,-10.3286,-4.1812,-0.5504,-9.1539,-3.4748,-1.2759,0.6561,0.4552,0.2926,0.0246,-0.2634,143568,2021-05-19 17:23:59:187
1.4354,-9.9263,-7.5425,0.2555,-9.4542,-2.5928,0.0529,-1.2563,2.7245,0.4835,0.8903,0.1411,144069,2021-05-19 17:23:59:688
0.7699,-4.5422,-1.0854,-0.4897,-9.3409,-2.9458,-1.1851,0.6092,-2.2591,-0.5768,0.1855,0.7417,144568,2021-05-19 17:24:00:187
8.3255,-10.6182,0.7771,-0.0945,-9.4791,-2.5116,0.8474,6.6652,2.9245,1.5262,-0.9114,-0.6359,145071,2021-05-19 17:24:00:690
1.8951,-20.4532,-5.6629,0.1536,-8.5275,-4.8404,1.0245,-3.7017,-2.5497,-1.9856,0.0547,-0.7038,145569,2021-05-19 17:24:01:188
1.3851,-16.5724,18.4529,0.4831,-9.4618,-2.5319,-10.0939,-1.1699,-17.0884,0.3331,0.3526,-0.1643,146069,2021-05-19 17:24:01:688
-10.5541,-21.3177,-5.0357,0.966,-8.2029,-5.2867,-2.5233,-10.9834,-1.8119,-1.0247,0.5099,-0.6133,146568,2021-05-19 17:24:02:187
1.7563,-7.1707,0.8752,0.1502,-9.6984,-1.4454,-1.0676,-2.1685,-0.7018,0.6709,1.5748,-0.2338,147069,2021-05-19 17:24:02:688
1.421,-9.7205,-0.4941,0.0533,-9.7931,0.5122,0.5986,0.1937,-2.0198,0.3894,0.6999,0.1008,147568,2021-05-19 17:24:03:187
-0.839,-5.7511,-0.6497,0.571,-8.8377,-4.2119,1.5607,-0.4585,2.3761,-0.8074,-0.1556,0.1756,148069,2021-05-19 17:24:03:688
6.1493,-17.0513,-14.0255,0.3454,-9.1243,-3.5775,1.5463,0.4485,-3.5359,0.2133,1.3567,0.1083,148569,2021-05-19 17:24:04:188
-0.3649,-9.1938,-2.8355,0.6297,-8.9283,-4.0074,0,0,0,1.881,1.0772,0.2077,149325,2021-05-19 17:24:04:944
-0.3649,-9.1938,-2.8355,0.6297,-8.9283,-4.0074,0,0,0,1.881,1.0772,0.2077,149326,2021-05-19 17:24:04:945
-0.3649,-9.1938,-2.8355,0.6297,-8.9283,-4.0074,0,0,0,1.881,1.0772,0.2077,149327,2021-05-19 17:24:04:946
-0.3649,-9.1938,-2.8355,0.6297,-8.9283,-4.0074,0,0,0,1.881,1.0772,0.2077,149327,2021-05-19 17:24:04:946
-0.3649,-9.1938,-2.8355,0.6297,-8.9283,-4.0074,0,0,0,1.881,1.0772,0.2077,149327,2021-05-19 17:24:04:946
-0.3649,-9.1938,-2.8355,0.6297,-8.9283,-4.0074,0,0,0,1.881,1.0772,0.2077,149328,2021-05-19 17:24:04:947
-0.3649,-9.1938,-2.8355,0.6297,-8.9283,-4.0074,0,0,0,1.881,1.0772,0.2077,149328,2021-05-19 17:24:04:947
-0.3649,-9.1938,-2.8355,0.6297,-8.9283,-4.0074,0,0,0,1.881,1.0772,0.2077,149329,2021-05-19 17:24:04:948
-0.3649,-9.1938,-2.8355,0.6297,-8.9283,-4.0074,0,0,0,1.881,1.0772,0.2077,149329,2021-05-19 17:24:04:948
-0.3649,-9.1938,-2.8355,0.6297,-8.9283,-4.0074,0,0,0,1.881,1.0772,0.2077,149329,2021-05-19 17:24:04:948
-0.3649,-9.1938,-2.8355,0.6297,-8.9283,-4.0074,0,0,0,1.881,1.0772,0.2077,149330,2021-05-19 17:24:04:949
-0.3649,-9.1938,-2.8355,0.6297,-8.9283,-4.0074,0,0,0,1.881,1.0772,0.2077,149330,2021-05-19 17:24:04:949
-0.3649,-9.1938,-2.8355,0.6297,-8.9283,-4.0074,0,0,0,1.881,1.0772,0.2077,149331,2021-05-19 17:24:04:950
-0.3649,-9.1938,-2.8355,0.6297,-8.9283,-4.0074,0,0,0,1.881,1.0772,0.2077,149331,2021-05-19 17:24:04:950
-0.3649,-9.1938,-2.8355,0.6297,-8.9283,-4.0074,0,0,0,1.881,1.0772,0.2077,149331,2021-05-19 17:24:04:950
-0.3649,-9.1938,-2.8355,0.6297,-8.9283,-4.0074,0,0,0,1.881,1.0772,0.2077,149332,2021-05-19 17:24:04:951
-0.3649,-9.1938,-2.8355,0.6297,-8.9283,-4.0074,0,0,0,1.881,1.0772,0.2077,149332,2021-05-19 17:24:04:951
-0.4175,-8.8992,-2.4144,1.1565,-9.5722,-1.7902,0,0,0,-0.1536,0.6115,0.0344,149743,2021-05-19 17:24:05:362
-0.4175,-8.8992,-2.4144,1.1565,-9.5722,-1.7902,0,0,0,-0.1536,0.6115,0.0344,149744,2021-05-19 17:24:05:363
2.0076,-11.6333,-6.6637,2.0125,-8.0714,-5.1936,0,0,0,-2.4721,-0.4108,-0.0681,149795,2021-05-19 17:24:05:414
4.5981,-8.9327,1.7396,1.1294,-9.7197,0.6503,0,0,0,-0.2918,0.8625,-0.058,150296,2021-05-19 17:24:05:915
4.5981,-8.9327,1.7396,1.1294,-9.7197,0.6503,0,0,0,-0.2918,0.8625,-0.058,150298,2021-05-19 17:24:05:917
4.5981,-8.9327,1.7396,1.1294,-9.7197,0.6503,0,0,0,-0.2918,0.8625,-0.058,150299,2021-05-19 17:24:05:918
4.5981,-8.9327,1.7396,1.1294,-9.7197,0.6503,0,0,0,-0.2918,0.8625,-0.058,150300,2021-05-19 17:24:05:919
4.5981,-8.9327,1.7396,1.1294,-9.7197,0.6503,0,0,0,-0.2918,0.8625,-0.058,150301,2021-05-19 17:24:05:920
4.5981,-8.9327,1.7396,1.1294,-9.7197,0.6503,0,0,0,-0.2918,0.8625,-0.058,150302,2021-05-19 17:24:05:921
4.5981,-8.9327,1.7396,1.1294,-9.7197,0.6503,0,0,0,-0.2918,0.8625,-0.058,150303,2021-05-19 17:24:05:922
4.5981,-8.9327,1.7396,1.1294,-9.7197,0.6503,0,0,0,-0.2918,0.8625,-0.058,150305,2021-05-19 17:24:05:924
4.5981,-8.9327,1.7396,1.1294,-9.7197,0.6503,0,0,0,-0.2918,0.8625,-0.058,150305,2021-05-19 17:24:05:924
4.5981,-8.9327,1.7396,1.1294,-9.7197,0.6503,0,0,0,-0.2918,0.8625,-0.058,150306,2021-05-19 17:24:05:925
-0.7863,-9.4044,-2.5484,1.7476,-9.6398,0.4362,0,0,0,-1.5036,0.8892,-0.0786,150797,2021-05-19 17:24:06:416
-0.7863,-9.4044,-2.5484,1.7476,-9.6398,0.4362,0,0,0,-1.5036,0.8892,-0.0786,150798,2021-05-19 17:24:06:417
-0.7863,-9.4044,-2.5484,1.7476,-9.6398,0.4362,0,0,0,-1.5036,0.8892,-0.0786,150798,2021-05-19 17:24:06:417
-0.7863,-9.4044,-2.5484,1.7476,-9.6398,0.4362,0,0,0,-1.5036,0.8892,-0.0786,150798,2021-05-19 17:24:06:417
-0.7863,-9.4044,-2.5484,1.7476,-9.6398,0.4362,0,0,0,-1.5036,0.8892,-0.0786,150799,2021-05-19 17:24:06:418
-0.7863,-9.4044,-2.5484,1.7476,-9.6398,0.4362,0,0,0,-1.5036,0.8892,-0.0786,150799,2021-05-19 17:24:06:418
2.2253,-5.2842,-9.5175,0.2818,-9.3188,-3.0415,-0.4953,5.7473,2.7311,1.0639,0.4022,-0.9012,151207,2021-05-19 17:24:06:826
