ACCELEROMETER X (m/s²),ACCELEROMETER Y (m/s²),ACCELEROMETER Z (m/s²),GRAVITY X (m/s²),GRAVITY Y (m/s²),GRAVITY Z (m/s²),LINEAR ACCELERATION X (m/s²),LINEAR ACCELERATION Y (m/s²),LINEAR ACCELERATION Z (m/s²),GYROSCOPE X (rad/s),GYROSCOPE Y (rad/s),GYROSCOPE Z (rad/s),Time since start in ms ,YYYY-MO-DD HH-MI-SS_SSS
-0.8857,-0.915,9.5503,-1.1034,-0.0603,9.7442,-0.6645,0.8831,0.6781,-1.0842,-1.7585,0.1958,8,2021-03-19 12:15:58:176
-0.8139,1.2541,9.4306,-0.5532,1.0615,9.7333,-1.8757,0.1955,-0.1211,0.2783,-0.5358,1.6936,508,2021-03-19 12:15:58:676
-10.2466,-11.1079,16.061,0.9801,6.8492,-6.9497,4.7212,-7.9441,-9.0559,-1.0009,-2.9897,-6.4581,1007,2021-03-19 12:15:59:175
-4.3679,-7.6616,-4.618,3.5523,-8.1039,-4.2283,2.8049,-3.7581,-7.1497,0.0703,-0.1928,-0.358,1508,2021-03-19 12:15:59:676
5.0936,-7.1863,-5.2249,4.002,-8.0153,-3.9886,5.1214,-3.4253,3.998,-0.4245,0.0546,0.3329,2008,2021-03-19 12:16:00:176
-4.2698,-0.9342,6.7887,4.4093,-7.049,-5.1999,1.355,1.7379,-0.2957,-0.0296,0.627,-1.0849,2508,2021-03-19 12:16:00:676
2.891,-8.2409,-3.9034,3.493,-7.32,-5.5124,-2.604,-0.1953,-1.0571,0.4249,-0.9775,-0.3583,3007,2021-03-19 12:16:01:175
0.7303,-3.7819,-5.8857,5.8493,-4.9318,-6.1346,0.3805,-3.277,1.8386,-0.8341,0.7256,-0.6069,3508,2021-03-19 12:16:01:676
9.0307,-3.2085,-11.3287,4.4976,-3.8006,-7.842,4.9471,0.3889,0.1034,0.1699,-0.6543,1.6112,4007,2021-03-19 12:16:02:175
2.9664,0.2964,-12.3581,4.7917,-6.5177,-5.5434,-0.6147,-1.6548,-0.1351,-0.2764,2.2525,-0.8897,4508,2021-03-19 12:16:02:676
4.4053,-7.6113,-9.7318,4.79,-6.0241,-6.0776,-1.8168,2.6501,6.0009,-0.2684,-0.7457,0.3904,5007,2021-03-19 12:16:03:175
6.1158,-6.7997,-6.902,3.9465,-7.2097,-5.3494,0.1469,0.8943,-0.6837,0.6124,0.1285,-0.2636,5509,2021-03-19 12:16:03:677
1.3241,-8.4672,-3.4078,2.4046,-7.2703,-6.1262,1.5348,-0.9682,0.206,-0.0613,0.178,0.1106,6008,2021-03-19 12:16:04:176
1.6927,-4.4224,-6.6925,3.7605,-7.8277,-4.556,0.8833,-0.3469,-1.5476,0.5581,-0.1843,-0.2291,6508,2021-03-19 12:16:04:676
3.9683,-9.1136,-5.2333,3.6053,-8.2031,-3.9851,-2.0366,2.4876,-3.2479,0.6821,0.1825,-0.2324,7007,2021-03-19 12:16:05:175
5.8202,-8.7976,-6.8361,4.0295,-8.3343,-3.2362,0.2465,0.3597,-0.6973,0.2099,-0.6528,0.2343,7507,2021-03-19 12:16:05:675
5.6873,-8.2948,-4.8059,3.9131,-8.397,-3.2168,0.1547,0.424,-1.8847,0.0993,-0.1901,0.113,8008,2021-03-19 12:16:06:176
5.2623,-8.0985,-4.1332,4.0709,-8.4369,-2.9012,-0.6232,0.6929,-1.901,0.6604,0.0372,0.2746,8508,2021-03-19 12:16:06:676
7.3871,-10.4124,0.2432,4.6393,-8.3266,-2.3056,2.838,-0.1917,-3.7975,0.1677,0.5225,0.2361,9008,2021-03-19 12:16:07:176
12.0736,-8.7042,-5.1267,4.2932,-8.0159,-3.6721,5.5755,2.1772,0.6337,-0.8011,-0.4463,-0.1619,9508,2021-03-19 12:16:07:676
17.1239,-14.2561,-8.6245,3.8828,-8.1343,-3.8636,-13.4027,7.0713,3.2385,-1.0381,0.2977,-3.0149,10008,2021-03-19 12:16:08:176
2.2769,-8.9759,0.3306,4.0441,-6.5751,-6.0484,1.0573,1.5035,2.036,-1.2736,0.4816,-0.2492,10508,2021-03-19 12:16:08:676
-5.3998,-2.1946,-10.4452,2.6923,-8.6851,-3.6729,-3.5538,5.696,-3.1697,0.822,-3.5129,0.1982,11008,2021-03-19 12:16:09:176
-6.6052,-4.4978,6.7731,3.607,-6.9721,-5.8779,2.2819,-1.8118,-0.3453,-0.3677,-1.1537,0.2343,11508,2021-03-19 12:16:09:676
1.913,-4.1722,0.8705,4.1034,-7.5243,-4.7662,2.4112,2.8249,-4.1472,-0.0021,0.3212,-0.4829,12008,2021-03-19 12:16:10:176
3.1867,-4.2859,-10.7792,3.3842,-7.8277,-4.842,-3.1117,0.0172,-1.226,0.7261,-0.6516,0.4658,12508,2021-03-19 12:16:10:676
5.4036,-12.1589,-4.7521,3.1535,-7.3136,-5.7216,0.0755,-1.5035,0.1991,-0.3402,0.6746,-0.2944,13008,2021-03-19 12:16:11:176
3.2645,-9.2668,-3.9967,3.0748,-7.3397,-5.731,3.8489,0.4482,3.6403,-0.2709,0.7113,1.2996,13508,2021-03-19 12:16:11:676
3.5697,-5.8265,-4.2876,3.8014,-7.2852,-5.3521,-0.5149,2.9314,-0.9397,0.0645,-0.5532,-0.241,14007,2021-03-19 12:16:12:175
3.9815,-6.1976,-4.0458,3.7129,-7.3626,-5.3083,-3.5648,0.753,2.7559,-0.2171,-1.9488,-0.6115,14508,2021-03-19 12:16:12:676
2.0471,-9.8701,-3.877,3.6108,-7.5052,-5.1773,4.3424,-2.2559,0.3348,0.478,-0.6696,1.0382,15008,2021-03-19 12:16:13:176
2.4636,-9.2931,-4.6587,3.7832,-6.7467,-6.0283,4.8067,-3.4063,-1.873,-0.1875,0.0069,0.0999,15508,2021-03-19 12:16:13:676
13.2922,-9.4823,-4.8622,3.8292,-6.832,-5.9018,1.5589,-0.8685,-0.0306,-0.2666,0.4907,1.0342,16008,2021-03-19 12:16:14:176
7.0495,-6.2981,-9.3416,3.9774,-6.9087,-5.7115,-8.9429,1.5497,3.9834,-0.9731,1.5426,-0.3735,16508,2021-03-19 12:16:14:676
8.4465,-6.8799,-6.9738,4.7939,-6.405,-5.6715,5.5363,0.6672,-3.1787,-0.1863,-0.2218,-0.2963,17008,2021-03-19 12:16:15:176
-2.9482,-0.3213,-2.9756,4.2589,-7.0001,-5.3881,2.6794,1.8749,-3.2125,-0.1237,-0.0245,-1.0522,17508,2021-03-19 12:16:15:676
-0.371,-3.2732,-8.6628,4.077,-6.8275,-5.7389,-0.6305,0.2653,1.1186,-0.3567,0.3191,-0.4572,18008,2021-03-19 12:16:16:176
1.7346,-10.0293,-1.9701,4.0992,-6.8337,-5.7156,-1.8079,1.4856,0.9513,0.0526,-0.8538,0.8189,18508,2021-03-19 12:16:16:676
20.0483,-15.8051,-2.5926,3.9716,-7.3126,-5.1887,4.6622,-1.1466,0.7171,-0.0369,1.6178,0.551,19008,2021-03-19 12:16:17:176
1.5539,-14.7828,3.3089,4.6591,-6.4475,-5.7352,2.4452,1.2377,1.0615,0.6314,-0.9106,1.4978,19508,2021-03-19 12:16:17:676
3.8199,-5.9235,-3.4856,4.6212,-6.8824,-5.2391,-0.4221,2.3005,0.9209,-0.0277,0.3069,-0.2538,20008,2021-03-19 12:16:18:176
3.3507,-6.4502,-7.2108,4.5606,-6.6434,-5.589,2.0303,0.8432,0.2594,-0.3338,0.0066,-0.0831,20508,2021-03-19 12:16:18:676
2.7569,-7.4042,-3.6041,4.5795,-6.5147,-5.7233,0.4151,0.4842,-0.3335,-0.2849,-0.3419,-0.0638,21008,2021-03-19 12:16:19:176
3.632,-5.8804,-4.3032,4.0388,-6.7127,-5.899,0.3065,0.2729,-0.1879,-0.5116,0.3695,0.6732,21508,2021-03-19 12:16:19:676
10.2684,-12.2726,-10.2741,3.5844,-5.9467,-6.9252,2.4418,-1.9872,1.0555,0.136,-0.6751,0.4166,22007,2021-03-19 12:16:20:175
16.353,-8.047,-4.6096,3.3338,-5.9221,-7.07,-3.8525,-1.9101,4.509,-0.2272,-0.1834,0.5571,22508,2021-03-19 12:16:20:676
9.5406,-8.9783,-8.0356,3.8362,-5.0887,-7.4538,-2.323,-1.2248,2.2554,-0.1679,0.7956,0.4756,23008,2021-03-19 12:16:21:176
2.3128,-5.9701,-3.6891,4.334,-6.2747,-6.1656,0.382,-0.3514,1.5788,-0.3081,0.4706,0.106,23508,2021-03-19 12:16:21:676
3.4464,-6.5842,-8.1744,4.7586,-7.4944,-4.1665,-3.0566,0.3025,0.5787,0.6888,-0.6913,-0.1182,24008,2021-03-19 12:16:22:176
2.9113,-3.8178,-5.5182,5.4379,-7.7267,-2.6262,-0.9964,0.4126,-2.0237,0.4808,-0.1382,-1.0653,24508,2021-03-19 12:16:22:676
7.1333,-10.7069,-0.0369,5.273,-7.8965,-2.4516,1.4795,-0.362,0.7614,0.0138,0.1117,1.0046,25008,2021-03-19 12:16:23:176
3.8391,-6.4286,-5.1567,5.3617,-7.723,-2.789,-4.1876,1.8709,-1.7888,0.8323,-0.2237,0.6069,25509,2021-03-19 12:16:23:677
8.826,-9.8641,-5.5457,5.3276,-7.9283,-2.2201,0.3436,1.7568,-1.8512,0.5462,-0.1721,0.6845,26008,2021-03-19 12:16:24:176
0.9099,-5.046,-3.4724,4.8836,-7.9988,-2.8879,3.2264,-1.2462,-1.3577,0.1763,-1.4256,-0.7605,26508,2021-03-19 12:16:24:676
9.968,-9.2321,-4.8813,3.481,-8.1288,-4.2398,2.7482,-0.508,-1.4597,-0.2547,-0.5774,0.0938,27008,2021-03-19 12:16:25:176
4.6519,-6.832,-3.4593,4.3884,-6.4308,-5.9631,2.2918,-0.6981,1.0752,-0.4114,-0.228,-0.3143,27508,2021-03-19 12:16:25:676
4.0845,-7.2366,-6.4938,4.1455,-6.631,-5.9173,2.2239,-0.9636,-0.1984,-3.00E-04,-0.3547,-0.1509,28008,2021-03-19 12:16:26:176
5.0948,-7.3084,-4.2493,4.0535,-6.671,-5.936,1.5793,-0.6302,1.2843,-0.229,-0.1782,0.3897,28508,2021-03-19 12:16:26:676
4.4256,-8.0626,-3.9967,4.3907,-6.166,-6.2348,0.5625,-0.0239,0.7677,-0.3814,0.1606,-0.0993,29008,2021-03-19 12:16:27:176
5.0253,-6.2479,-5.1938,4.3115,-5.5836,-6.8121,1.5204,-0.4947,0.8741,-0.6838,0.0332,0.3647,29508,2021-03-19 12:16:27:676
10.8382,-10.0377,-15.8942,3.5646,-5.3715,-7.39,0.4042,-1.0245,0.021,0.1405,-0.1226,0.3748,30008,2021-03-19 12:16:28:176
1.7478,-8.0781,-7.0396,3.9306,-4.9719,-7.4834,2.0282,-2.1021,1.6196,-0.6753,0.4425,0.2101,30508,2021-03-19 12:16:28:676
2.7007,-6.8236,-8.0056,3.7006,-3.9602,-8.1727,3.6038,-1.3753,-2.6788,-1.5561,0.9324,0.5418,31008,2021-03-19 12:16:29:176
10.1655,-9.5242,-8.7215,3.7309,-3.3087,-8.4442,5.9502,-2.9221,-4.5689,-0.9074,0.2488,0.5287,31515,2021-03-19 12:16:29:683
6.7551,-3.6227,-11.3442,3.6112,-3.4682,-8.4321,2.0797,-0.9306,0.9339,-0.4517,0.6215,1.0162,32007,2021-03-19 12:16:30:175
1.3755,-3.0733,-6.1371,4.3945,-2.791,-8.3108,1.3211,-0.3014,-1.7924,-1.5632,0.7766,-0.1188,32508,2021-03-19 12:16:30:676
7.4685,-6.6537,-6.908,4.8661,-2.8932,-8.0076,-0.3427,0.4143,-1.0354,-1.4715,0.8365,-0.4099,33008,2021-03-19 12:16:31:176
2.5822,-7.4545,-12.6071,6.3117,-3.9453,-6.2183,0.6495,1.3676,-0.1153,0.6069,-0.4787,0.1631,33508,2021-03-19 12:16:31:676
10.4743,-8.1488,-7.0827,4.8076,-4.801,-7.0717,0.2048,-2.7258,1.6837,0.2575,0.666,0.836,34008,2021-03-19 12:16:32:176
14.5646,-4.973,-12.2097,5.3935,-3.4368,-7.4343,0.784,-1.4865,-1.0033,-0.3842,0.6679,0.686,34508,2021-03-19 12:16:32:676
16.0825,-6.0479,-12.3462,5.9169,-5.2591,-5.7882,-0.9005,0.2843,1.027,0.125,0.014,0.7251,35009,2021-03-19 12:16:33:177
7.368,-8.3618,-7.1857,5.7944,-6.7124,-4.1879,-0.7954,-0.9167,-4.1642,0.4756,0.218,-1.1564,35508,2021-03-19 12:16:33:676
2.8718,-3.831,6.4308,4.4279,-6.1862,-6.1883,2.5164,2.0493,1.0653,-0.9208,-2.3461,1.7886,36009,2021-03-19 12:16:34:177
5.3414,-3.4252,-2.595,3.789,-6.1502,-6.6324,0.1808,1.5944,2.6804,-0.3417,0.4984,-0.1356,36508,2021-03-19 12:16:34:676
4.5106,-4.8509,-5.2333,3.8485,-4.8535,-7.6028,2.1978,-0.7347,-2.0452,0.5468,0.3618,0.1988,37008,2021-03-19 12:16:35:176
3.4105,-4.6259,-6.392,3.8911,-4.7616,-7.6392,1.6661,1.169,1.9049,-1.0464,0.5527,0.2309,37508,2021-03-19 12:16:35:676
-5.6835,1.6275,-9.1333,3.8602,-5.781,-6.9173,1.9502,-2.1153,-0.9985,0.8971,0.2052,0.0104,38008,2021-03-19 12:16:36:176
4.1623,-6.4382,-1.8911,4.0826,-4.4366,-7.7343,-0.2366,0.7178,4.9601,-0.9792,0.3643,0.9899,38509,2021-03-19 12:16:36:677
3.3171,-4.5923,-12.6933,4.8002,-6.6875,-5.3297,-4.6427,1.6305,-0.9053,1.9481,-0.3785,-0.38,39008,2021-03-19 12:16:37:176
2.0878,-6.9158,-5.7504,5.0304,-6.0911,-5.8106,-0.8393,1.5062,2.601,-0.7357,0.1154,0.0516,39508,2021-03-19 12:16:37:676
1.4653,-5.7738,-5.5014,6.2529,-6.5036,-3.8438,-2.5376,1.0405,-3.2333,0.9774,-0.1043,-0.4627,40008,2021-03-19 12:16:38:176
9.7214,-8.6515,-7.443,5.6527,-6.8414,-4.1729,-0.8071,2.9102,-1.1974,-0.134,-0.1956,-0.0922,40508,2021-03-19 12:16:38:676
1.4629,-8.6719,-8.664,5.5288,-5.3406,-6.0893,0.963,-0.2365,1.8056,-1.1139,0.524,0.2135,41008,2021-03-19 12:16:39:176
3.5422,-9.7636,-7.5508,4.1005,-5.9847,-6.5984,1.3391,-1.6586,0.2385,0.4188,-0.4198,0.036,41508,2021-03-19 12:16:39:676
9.391,-0.9689,-8.7095,3.4746,-6.129,-6.8215,0.9683,-3.0404,1.1,-0.1536,-0.2475,0.2022,42008,2021-03-19 12:16:40:176
9.8075,-8.4995,-1.5787,3.913,-6.564,-6.146,-1.0875,3.2801,-1.9732,0.4958,-0.957,0.3232,42508,2021-03-19 12:16:40:676
4.6554,-10.6386,1.3732,3.5968,-6.4026,-6.4993,-1.4626,0.1246,1.5544,0.7722,0.2781,0.8763,43008,2021-03-19 12:16:41:176
20.7055,-9.5086,-12.3497,4.3005,-6.1312,-6.3312,-2.2575,-1.5467,-2.0673,0.6286,-0.8339,0.54,43508,2021-03-19 12:16:41:676
-4.727,-1.2442,-9.6707,3.9343,-6.7003,-5.9831,1.9109,0.8489,-3.6267,-0.321,0.7806,-0.8106,44008,2021-03-19 12:16:42:176
5.1367,-12.8963,1.4056,3.4652,-6.7317,-6.2327,3.5328,-4.86,1.3307,0.5568,-0.7344,-0.8247,44508,2021-03-19 12:16:42:676
3.2465,-11.6454,0.1726,3.441,-6.639,-6.3446,-0.9686,-1.9133,4.597,-0.2654,0.1132,0.2682,45008,2021-03-19 12:16:43:176
-3.3899,3.0484,-5.1507,3.6885,-6.2614,-6.5849,8.3886,-2.5167,0.7709,-0.8075,-0.1003,0.9285,45509,2021-03-19 12:16:43:677
0.2491,-3.9711,-14.3309,4.1329,-6.6961,-5.8525,-5.57,0.6388,2.0815,0.3751,-0.4598,-0.4847,46008,2021-03-19 12:16:44:176
-10.9924,-9.7923,0.8681,4.5946,-6.3069,-5.94,9.7174,-3.2507,-4.6127,-0.244,-0.1672,-2.1774,46508,2021-03-19 12:16:44:676
9.9823,-7.6101,-6.8696,4.5473,-6.1872,-6.1001,5.1288,0.2908,-0.709,-0.0088,1.1343,0.2758,47008,2021-03-19 12:16:45:176
0.1306,-11.2491,3.2083,4.2066,-5.1165,-7.2316,4.773,-4.5411,0.202,-0.4004,0.5619,0.8354,47508,2021-03-19 12:16:45:676
-9.5727,-11.2898,-1.2758,3.9307,-5.8882,-6.7859,2.5228,-1.8908,3.3049,0.245,-1.1067,1.4108,48008,2021-03-19 12:16:46:176
-0.5936,-5.204,-1.848,3.9869,-6.2912,-6.3793,0.5184,2.665,-2.3017,-0.3188,-0.2151,-1.2455,48507,2021-03-19 12:16:46:675
-0.6906,0.1348,-5.2931,3.8787,-5.805,-6.8868,-4.4993,-2.3182,1.0899,0.8003,-0.6885,-0.2462,49008,2021-03-19 12:16:47:176
8.8894,-7.8974,-2.7889,3.8431,-5.9234,-6.8055,2.4245,0.7199,-0.2183,0.1076,-0.2399,0.0186,49508,2021-03-19 12:16:47:676
11.5002,-6.4454,-10.3806,3.489,-5.6319,-7.2304,-2.1249,-0.3696,-0.5773,0.1207,-0.4506,0.1057,50008,2021-03-19 12:16:48:176
1.3396,-4.6905,-2.6644,3.93,-4.0528,-8.0187,-3.412,1.4572,0.2876,-1.109,0.4599,-1.7831,50508,2021-03-19 12:16:48:676
0.4035,-3.3354,-6.2149,5.2278,-6.1156,-5.6071,2.8618,-0.2992,0.8003,0.5202,0.269,0.263,51008,2021-03-19 12:16:49:176
-3.3085,-2.367,-1.0185,4.4256,-5.4557,-6.8425,0.4965,0.6881,2.3399,-0.3228,-0.0893,0.0868,51509,2021-03-19 12:16:49:677
5.6921,-6.4717,1.2547,4.0329,-2.9083,-8.4527,-6.6024,0.7622,7.4323,0.6983,-0.8654,1.3082,52008,2021-03-19 12:16:50:176
2.4218,-1.1652,-11.8637,4.2399,-3.4918,-8.1241,-0.2312,0.1493,2.7013,-0.3536,-0.1192,-0.4899,52508,2021-03-19 12:16:50:676
18.6095,-2.5454,-12.2695,4.2589,-4.1791,-7.7825,1.661,0.926,2.2982,-0.4205,-0.4411,-0.3696,53008,2021-03-19 12:16:51:176
-4.5846,-2.628,-0.1937,4.2859,-3.7371,-7.9897,-1.7442,-0.6508,2.2601,-0.4828,0.6413,-0.8451,53508,2021-03-19 12:16:51:676
-2.7627,0.0414,-10.2046,3.3033,-3.5188,-8.5368,1.4991,-0.097,-0.1368,-1.1844,1.3166,0.2395,54008,2021-03-19 12:16:52:176
7.1262,-2.3802,-15.6285,3.4332,-2.9234,-8.7085,3.2196,-1.8286,-1.8579,-0.671,1.0869,-0.4264,54508,2021-03-19 12:16:52:676
5.4838,-2.8027,-6.483,4.0767,-3.8755,-8.0331,3.7143,-1.7173,-0.3322,-0.2419,0.4238,-0.336,55008,2021-03-19 12:16:53:176
6.4654,-5.2136,-7.8201,3.5812,-3.9426,-8.2341,-2.0499,0.8073,4.6314,-0.1542,0.7968,0.9023,55508,2021-03-19 12:16:53:676
8.3651,-7.2378,-5.4224,3.6646,-4.1699,-8.0841,-0.1048,-0.016,-0.5329,0.2939,0.5124,0.6961,56008,2021-03-19 12:16:54:176
-0.3877,-2.4819,-11.258,4.169,-5.053,-7.2978,-0.3121,-0.3918,0.6642,0.1302,0.269,0.3354,56508,2021-03-19 12:16:54:676
1.4497,-4.7264,-8.6509,5.0288,-5.7169,-6.1805,0.3773,6.5007,-1.1737,-0.1646,0.3545,-1.4829,57008,2021-03-19 12:16:55:176
4.7787,-6.7051,-2.2526,5.7013,-6.5155,-4.6058,0.3073,2.6538,-0.1026,-0.412,-0.1443,1.1115,57508,2021-03-19 12:16:55:676
6.1781,-7.1289,-2.3939,4.5313,-6.1546,-6.1448,1.1751,-0.6554,-0.425,-0.8442,0.4177,0.7028,58008,2021-03-19 12:16:56:176
1.2558,-2.8626,-2.9685,4.4281,-5.9127,-6.45,-2.9401,-1.1553,0.1711,1.048,0.4535,0.1588,58507,2021-03-19 12:16:56:675
2.1428,-3.4108,-7.9159,5.0867,-7.0461,-4.544,0.2674,0.9323,-0.8706,0.3226,-0.5493,0.3806,59007,2021-03-19 12:16:57:175
8.4992,-9.5721,-2.5244,4.3959,-7.0994,-5.1424,2.0706,0.068,0.3218,-0.3674,0.7616,-0.42,59508,2021-03-19 12:16:57:676
0.8021,-5.1478,-6.7655,3.5289,-7.51,-5.2267,1.5597,0.2452,1.5807,-0.1905,-0.8385,0.1738,60008,2021-03-19 12:16:58:176
4.2652,-7.9273,-5.505,3.0233,-8.0463,-4.7209,1.4872,-0.8182,0.1737,0.4365,0.5048,-0.1325,60507,2021-03-19 12:16:58:675
2.2937,-7.1744,-3.2354,3.6992,-7.6205,-4.9411,1.166,-0.8081,-0.5369,-0.3234,0.353,-0.5794,61008,2021-03-19 12:16:59:176
8.3483,-4.8006,-3.9632,4.4066,-5.6622,-6.6852,2.8662,0.2711,-1.2936,-0.3448,-0.6467,0.1185,61508,2021-03-19 12:16:59:676
4.7512,-5.9737,-11.8769,2.6769,-5.4117,-7.7277,4.5818,-4.8942,-4.7833,-6.5252,3.48,4.2196,62008,2021-03-19 12:17:00:176
3.7828,-4.2991,-9.0399,7.8654,-5.8188,-0.6686,-4.0435,1.6425,-8.5782,-1.503,2.7179,0.3919,62508,2021-03-19 12:17:00:676
1.852,-2.9081,8.0827,0.4717,-1.1933,9.7223,1.0193,-1.9478,-2.3307,2.1509,1.937,-0.1964,63008,2021-03-19 12:17:01:176
-1.088,1.2792,8.7483,-0.386,1.1432,9.7321,-0.8975,-0.2559,-0.0545,0.3232,-0.2084,0.0974,63507,2021-03-19 12:17:01:675
-0.3781,1.9675,9.5826,-0.0296,1.6925,9.6595,-0.1971,-0.1495,0.3792,0.3119,0.1166,-0.087,64008,2021-03-19 12:17:02:176
1.3121,3.6553,9.5622,-0.4549,3.0841,9.298,-0.5559,1.6674,-2.7163,0.9548,-0.2512,-0.8201,64508,2021-03-19 12:17:02:676
-0.9072,2.3901,9.8364,-0.5584,2.3254,9.5106,-0.1613,-0.2758,-0.0526,1.0229,-0.2173,-0.6454,65008,2021-03-19 12:17:03:176
-6.6052,4.6908,5.8957,-5.8901,4.4336,6.4669,-0.5134,0.8428,0.3749,0.2759,2.5991,-0.3854,65507,2021-03-19 12:17:03:675
-1.4557,-1.0295,13.7236,-0.2354,0.7714,9.7734,2.3612,1.4336,-1.2765,-1.2914,-1.6194,-0.2932,30,2021-05-14 09:49:02:572
0.3424,1.3312,9.7995,0.3716,1.8427,9.6248,-0.4676,-0.931,0.8956,-0.1002,-0.3806,-0.3848,530,2021-05-14 09:49:03:072
0.2274,0.8547,9.2536,0.7809,0.6835,9.7516,-0.6722,0.0458,-0.4781,-0.212,0.9273,0.5614,1030,2021-05-14 09:49:03:572
1.4509,-0.4429,9.6175,1.2402,-0.0815,9.7276,1.1251,0.2491,0.0128,-0.2199,-0.2822,0.0605,1530,2021-05-14 09:49:04:072
7.9487,-1.9345,-1.1756,9.2013,-2.466,2.3293,-1.2526,0.5315,-3.5048,0.5479,-0.6732,-1.7428,2030,2021-05-14 09:49:04:572
13.8193,4.7549,-0.2442,7.4689,-6.2955,0.867,-1.6726,3.9157,-0.5582,0.2602,1.044,3.4196,2530,2021-05-14 09:49:05:072
-2.5019,-3.0502,-1.3647,-1.3743,-9.7092,0.1166,-3.1436,4.9806,0.4269,-2.0696,1.8802,-2.416,3030,2021-05-14 09:49:05:572
-0.5746,-11.8537,-7.4771,1.0924,-9.5621,-1.8821,-1.667,-2.2916,-5.5949,0.3745,0.2266,0.5962,3530,2021-05-14 09:49:06:072
3.8211,-5.6838,1.3001,0.7391,-9.7655,-0.509,2.6104,3.3682,1.4332,0.3073,-1.3555,-0.055,4031,2021-05-14 09:49:06:573
0.905,-17.1066,-4.8243,-2.6367,-9.2942,1.684,-2.5108,-4.0583,-7.8275,1.5357,0.4325,2.0629,4530,2021-05-14 09:49:07:072
2.7031,-10.24,-3.1603,-3.6632,-5.7474,-7.0511,3.619,0.37,3.2525,-2.7361,-1.4105,-4.0109,5030,2021-05-14 09:49:07:572
-25.096,-32.1829,-17.0587,0.0518,-9.5258,-2.3296,7.8377,6.511,-6.5878,1.7037,1.7843,0.0965,5530,2021-05-14 09:49:08:072
2.3846,-11.6765,-4.0582,1.2045,-9.7324,-0.0261,1.7243,-6.8398,-6.6978,0.8259,-0.4789,0.496,6030,2021-05-14 09:49:08:572
0.079,1.8148,-5.5019,4.4193,-0.6701,-8.7288,-2.9006,1.266,2.2201,-1.9035,-0.4856,-1.8027,6530,2021-05-14 09:49:09:072
4.1037,-0.9433,-6.2225,6.1191,-1.8961,-7.4251,-3.0305,-0.163,-0.6848,0.8894,0.843,0.1332,7030,2021-05-14 09:49:09:572
5.1523,-11.3413,-4.3958,5.0795,-7.9981,-2.5296,3.5757,-4.1894,-1.2671,1.1551,-0.7367,1.6958,7530,2021-05-14 09:49:10:072
5.4803,-5.5306,3.7972,5.9856,-4.0279,-6.6422,7.378,-8.3886,-0.8956,-1.6982,-0.9303,-2.5864,8030,2021-05-14 09:49:10:572
2.3056,-8.7317,-4.8195,2.9607,-9.2105,-1.6037,4.4198,-6.5149,-2.8557,-0.3067,-0.3042,0.0733,8530,2021-05-14 09:49:11:072
1.8148,-2.7964,-1.7166,4.2026,-8.1566,-3.4611,-2.6318,6.6761,0.4916,1.5101,1.8198,1.8179,9031,2021-05-14 09:49:11:573
-2.2625,-10.2017,7.4939,4.0659,-5.9979,-6.6079,-13.4771,2.3024,7.766,1.4374,1.0684,-0.3897,9530,2021-05-14 09:49:12:072
6.8738,-7.4675,-5.7269,5.0413,-6.5225,-5.3115,1.0378,-1.3607,-0.3105,0.5027,-0.157,-0.215,10030,2021-05-14 09:49:12:572
4.2713,-6.6008,-5.4588,5.0168,-6.5593,-5.2894,1.4014,2.8264,0.5258,-0.1985,0.2975,0.5284,10530,2021-05-14 09:49:13:072
7.2951,-8.0828,-6.1675,5.1082,-6.2916,-5.522,1.798,-1.2609,-0.9782,0.0593,-0.237,-0.0354,11030,2021-05-14 09:49:13:572
5.351,-6.5457,-3.6966,5.0907,-6.7187,-5.0114,0.9046,0.0419,-2.0115,0.121,0.2266,0.3519,11530,2021-05-14 09:49:14:072
3.5243,-6.4931,-5.5785,4.4865,-6.9232,-5.302,-0.9622,0.4301,-0.2765,-0.2126,-0.0043,0.2694,12030,2021-05-14 09:49:14:572
4.8339,-7.6567,-5.9592,4.3592,-6.4154,-6.0009,0.5393,1.5935,1.2005,-0.0244,-0.1967,-0.0397,12530,2021-05-14 09:49:15:072
5.5593,-8.3869,-6.1866,4.4448,-6.3707,-5.9857,1.6164,-1.1678,-0.1911,-0.1778,-0.0892,-0.0312,13030,2021-05-14 09:49:15:572
5.9975,-7.4077,-5.624,4.7539,-6.1694,-5.9589,0.456,-0.5855,0.5756,0.2443,-0.19,-0.4985,13531,2021-05-14 09:49:16:073
6.0885,-8.3773,-4.8842,4.9528,-6.4696,-5.4575,1.4013,0.6671,-0.126,0.0599,-0.2896,-0.0464,14030,2021-05-14 09:49:16:572
5.126,-7.5441,-5.7437,5.1359,-6.3555,-5.4222,-1.4568,1.2606,-0.282,0.4093,-0.2584,-0.4924,14530,2021-05-14 09:49:17:072
7.1371,-9.3972,-4.8147,5.4867,-5.8752,-5.6169,-1.9924,3.2409,1.4078,0.0764,-0.3323,-0.0538,15030,2021-05-14 09:49:17:572
0.486,-4.9775,-3.6799,5.8984,-5.2019,-5.8583,-9.25,3.8756,9.0936,-0.3775,-0.9591,-0.5779,15530,2021-05-14 09:49:18:072
7.4316,-8.0709,-9.0022,2.9848,-9.1081,-2.0748,4.3176,0.935,-6.6853,-0.8564,0.0733,-0.5241,16030,2021-05-14 09:49:18:572
3.2753,-0.1772,0.4022,4.6002,-5.8557,-6.3812,-2.8391,6.0762,3.7592,1.606,1.6023,-0.4038,16530,2021-05-14 09:49:19:072
0.7973,-2.7581,-6.4931,4.8453,-7.4499,-4.1463,1.735,-1.5674,-3.4458,-0.6683,-0.8296,-1.0892,17030,2021-05-14 09:49:19:572
8.2887,-15.1433,-0.1556,3.065,-9.1374,-1.8123,3.3935,-0.4001,-1.6597,1.5461,-0.5284,0.16,17531,2021-05-14 09:49:20:073
3.1963,-7.2185,-3.9959,4.9184,-7.5855,-3.8001,0.4923,-2.912,1.2901,-1.2236,-0.2663,-1.4966,18031,2021-05-14 09:49:20:573
7.5178,-7.6854,-3.6703,4.4605,-8.4061,-2.369,2.4275,-1.294,0.966,0.8723,1.0171,1.4331,18530,2021-05-14 09:49:21:072
2.7916,-5.5593,-1.4557,2.9342,-9.1326,-2.0388,0.504,2.7284,-2.5826,-1.0574,1.6487,-0.1466,19030,2021-05-14 09:49:21:572
2.2075,-4.0486,0.6345,5.1873,-6.8322,-4.7523,-2.9798,2.7836,5.3867,1.2486,0.4575,1.5766,19530,2021-05-14 09:49:22:072
0.0862,-13.0556,-5.4013,3.8605,-8.8273,-1.8293,-3.7743,-4.2283,-3.5721,-0.6506,0.0757,0.6884,20030,2021-05-14 09:49:22:572
5.0374,-6.8522,-2.6408,6.1293,-5.5332,-5.2901,-4.5256,4.7971,6.4218,-0.1619,-1.3635,-0.7019,20530,2021-05-14 09:49:23:072
4.9943,-16.666,-3.6512,3.8604,-8.9449,-1.1212,-1.4205,-6.4446,-2.238,-0.1167,0.1881,-0.0556,21030,2021-05-14 09:49:23:572
8.521,-10.7763,-4.9608,6.1128,-5.8171,-4.9966,2.4081,-4.9592,0.0358,-0.6164,-0.7898,-1.7055,21530,2021-05-14 09:49:24:072
7.8099,-8.6455,-0.5578,3.4054,-9.0061,-1.8611,4.4045,0.3606,1.3033,1.1283,-0.6225,0.7074,22030,2021-05-14 09:49:24:572
2.2673,-6.6726,-6.7684,5.1303,-7.1333,-4.3551,-3.5287,-0.5184,-0.9558,-1.157,-0.5095,-2.0269,22530,2021-05-14 09:49:25:072
3.7278,-7.0653,-2.5259,4.269,-8.5307,-2.2744,-0.9389,1.1762,0.018,0.7477,0.4844,2.0641,23030,2021-05-14 09:49:25:572
7.999,-10.2208,-3.7134,4.1634,-8.207,-3.3884,4.5651,-1.6055,-0.5268,-1.8265,1.8027,-0.3494,23530,2021-05-14 09:49:26:072
2.8347,-8.3965,-2.3535,2.529,-9.2608,-2.003,0.8612,-1.1635,-0.7767,1.6163,-1.8973,0.4459,24030,2021-05-14 09:49:26:572
1.6688,-12.3852,-2.6887,5.6174,-5.8379,-5.5258,0.2613,-5.5529,0.8492,-1.0794,-1.171,-1.7691,24530,2021-05-14 09:49:27:072
5.035,-5.1092,-4.5155,4.4397,-6.557,-5.7849,-0.1165,-3.0143,0.6351,-0.2957,0.6035,0.5382,25030,2021-05-14 09:49:27:572
7.0102,-6.6367,-5.8275,5.1142,-6.066,-5.7637,1.9462,-0.5218,-0.0713,-0.1271,0.2224,-0.256,25530,2021-05-14 09:49:28:072
6.3662,-7.5154,-5.7868,5.4725,-5.6091,-5.8958,0.9168,-1.8811,0.1064,-0.2242,0.2969,-0.0348,26031,2021-05-14 09:49:28:573
7.2233,-7.9775,-7.2425,4.8986,-6.236,-5.7695,4.9641,3.1494,-0.6697,0.2938,-0.631,-0.0452,26530,2021-05-14 09:49:29:072
-3.4405,-2.3104,2.8683,4.5325,-6.0687,-6.2287,-1.9353,5.9113,4.3657,0.8289,-0.7019,-0.2138,27030,2021-05-14 09:49:29:572
3.0837,-8.3797,-2.3272,2.6187,-8.8162,-3.4039,1.4675,2.9463,-1.366,-2.1936,1.0122,-0.7837,27530,2021-05-14 09:49:30:072
2.2529,-9.0429,-4.0223,3.4158,-8.84,-2.5212,-4.1413,-2.8461,0.6082,2.0488,-0.4789,2.2889,28030,2021-05-14 09:49:30:572
-6.3973,-10.6015,1.6185,4.2663,-7.0395,-5.3305,-4.635,9.7809,8.1341,-0.6952,-4.102,-2.8497,28530,2021-05-14 09:49:31:072
4.2904,-4.9225,-2.3607,3.259,-8.8792,-2.5902,0.1121,-3.2618,-4.7768,-2.5827,-1.504,-2.4166,29030,2021-05-14 09:49:31:572
3.9911,3.1651,-4.6543,5.1435,-6.9824,-4.5783,-0.9852,1.3112,2.5191,-0.1631,-1.1643,-0.1906,29530,2021-05-14 09:49:32:072
5.5713,-12.2296,-10.1849,4.4053,-7.0878,-5.1504,-0.3328,1.5801,0.6219,-0.3348,0.1717,-0.0122,30030,2021-05-14 09:49:32:572
3.1603,-6.4117,-3.9409,4.0303,-7.9205,-4.1464,-0.8152,1.5461,0.1871,0.2346,0.1454,0.0501,30530,2021-05-14 09:49:33:072
-0.0622,-11.3533,-1.6759,0.6985,-9.7556,-0.7144,0.0126,0.7103,-1.6606,0.3152,-0.1332,0.4765,31030,2021-05-14 09:49:33:572
-0.2155,-10.6398,0.8308,0.485,-9.7946,-0.0096,0.5158,-1.6544,0.7973,0.1888,-0.6048,-0.1228,31530,2021-05-14 09:49:34:072
1.6209,-9.8904,-0.1077,1.1475,-9.736,-0.2528,1.1695,0.2629,0.2327,0.025,-0.1258,-0.1442,32030,2021-05-14 09:49:34:572
0.5076,-7.9392,-2.3894,2.6304,-9.3339,-1.4595,-1.0587,2.1871,0.2788,-0.1038,-0.1484,-0.3341,32530,2021-05-14 09:49:35:072
3.3974,-9.7899,-1.4892,3.2157,-9.0514,-1.9754,0.1816,-0.7385,0.4862,0.0605,-0.2871,-0.1423,33033,2021-05-14 09:49:35:575
4.2473,-8.351,-1.0798,3.5735,-8.9401,-1.8642,0.4725,0.1619,-0.0611,0.2663,0.0367,0.1545,33530,2021-05-14 09:49:36:072
5.8275,-11.2719,-0.5028,2.4136,-9.3927,-1.4568,2.988,-0.3474,0.3065,0.0586,0.0507,0.1161,34030,2021-05-14 09:49:36:572
-0.9337,-10.082,-0.7973,3.2212,-9.1236,-1.5984,-4.1549,-0.9584,0.8012,0.1717,-0.1613,-0.2731,34530,2021-05-14 09:49:37:072
0.8811,-9.9838,-0.7518,2.4189,-9.4475,-1.0318,-1.5378,-0.5363,0.28,0.2841,0.0764,0.303,35030,2021-05-14 09:49:37:572
9.4643,-10.6135,-4.0199,2.9307,-8.7258,-3.3827,5.236,-2.7173,-0.0272,-1.2969,0.3653,-2.0311,35530,2021-05-14 09:49:38:072
1.7861,-10.6207,-1.8268,2.563,-9.2629,-1.9492,0.8511,-4.5803,-1.6972,0.5241,0.6231,1.2297,36030,2021-05-14 09:49:38:572
3.1771,-6.7612,-3.5985,6.5774,-5.3785,-4.8969,-3.678,-2.8934,2.7326,-1.2211,-1.7727,-2.821,36530,2021-05-14 09:49:39:072
6.754,-3.4022,-4.9775,7.1199,-4.2245,-5.2566,1.0282,-2.4868,-1.6473,-0.8717,0.1228,-0.1668,37030,2021-05-14 09:49:39:572
12.3493,-5.4468,-6.9599,6.7019,-3.0199,-6.4911,5.6474,-2.4269,-0.4688,-0.2395,0.3005,-1.127,37530,2021-05-14 09:49:40:072
5.0805,-4.8866,-3.6057,6.2233,-6.4447,-3.9883,1.2419,-2.1475,0.1584,0.3574,-0.3195,0.518,38030,2021-05-14 09:49:40:572
7.3287,-1.245,-8.2624,8.0186,-1.9199,-5.3091,-0.69,0.6749,-2.9533,1.0336,0.7123,1.1215,38530,2021-05-14 09:49:41:072
10.3142,-3.0622,-6.4907,7.2909,-5.0725,-4.1572,3.2288,0.0438,-0.2059,-0.6133,-0.5486,-1.4948,39030,2021-05-14 09:49:41:572
11.1354,-7.2353,-4.7453,6.2212,-6.3326,-4.1672,7.7166,-1.5913,-0.6342,0.7312,-0.5302,1.9749,39530,2021-05-14 09:49:42:072
2.7485,-1.0104,-5.8251,7.289,-2.1182,-6.2092,-0.4152,-0.9751,0.7122,0.8002,0.4081,-0.2303,40030,2021-05-14 09:49:42:572
6.8522,-2.2577,-6.8211,7.1462,-2.7591,-6.1229,-0.5787,0.5828,-0.41,0.025,0.1918,0.1258,40530,2021-05-14 09:49:43:072
4.6926,-1.1732,-6.699,5.3932,-2.0245,-7.9363,-0.6766,1.165,1.1799,-0.1179,-0.1784,0.2908,41030,2021-05-14 09:49:43:572
5.0877,-2.7845,-6.9504,6.3393,-2.0076,-7.2079,-3.7751,-3.3219,2.9677,0.7135,-0.3464,-0.7905,41530,2021-05-14 09:49:44:072
8.7915,-3.395,-6.3207,7.0916,-2.4651,-6.309,0.8145,-0.1674,0.2872,0.2315,0.0892,-0.4661,42030,2021-05-14 09:49:44:572
7.6112,-5.8897,-9.1387,6.8481,-3.6082,-6.0212,1.1134,-2.3817,-2.6855,-2.094,0.08,1.3207,42530,2021-05-14 09:49:45:072
4.7333,-1.008,-7.5106,5.4466,-1.4923,-8.0173,-0.6487,0.4578,0.5551,0.0385,0.2364,0.3189,43030,2021-05-14 09:49:45:572
5.8155,0.0862,-8.2193,5.5668,-1.6477,-7.9035,0.2594,1.5137,-0.2655,-0.628,-0.0666,0.62,43530,2021-05-14 09:49:46:072
6.7756,-1.3886,-7.4436,5.8087,-1.6141,-7.7346,1.2514,0.02,0.6842,1.0837,-0.3329,-0.6329,44030,2021-05-14 09:49:46:572
8.8035,-3.9983,-4.0223,7.0929,-3.2733,-5.9284,1.3748,-0.7407,3.863,0.7874,-0.2224,1.0977,44532,2021-05-14 09:49:47:074
8.5976,-5.8897,-5.8538,6.8518,-4.9347,-4.9872,1.9401,-0.6861,-1.7847,-1.113,0.0947,-0.7239,45031,2021-05-14 09:49:47:573
7.3885,-5.782,-4.8028,7.5001,-2.9601,-5.5819,-1.833,-0.3152,0.9108,1.0727,1.0079,1.4197,45530,2021-05-14 09:49:48:072
9.0237,-5.8682,-3.4884,6.5027,-6.5438,-3.3263,2.4557,-0.3125,0.1706,-0.0171,0.1362,-0.3048,46030,2021-05-14 09:49:48:572
7.0294,-6.4859,-3.6272,6.1947,-7.0681,-2.7996,0.8347,0.5822,-0.8276,-0.182,0.3677,-0.2938,46530,2021-05-14 09:49:49:072
4.865,-6.7588,-1.9417,6.8234,-6.7596,-1.98,-4.2343,1.1647,-0.0416,-0.2162,0.3189,-0.1582,47031,2021-05-14 09:49:49:573
7.9368,-5.4444,-1.7549,6.4039,-7.0554,-2.32,6.2613,-6.7624,-3.7925,-0.7758,1.6713,-0.931,47530,2021-05-14 09:49:50:072
6.8785,-6.5027,-2.715,6.9209,-6.4744,-2.5206,-0.0423,-0.0282,-0.1944,-0.3549,-0.3604,0.0165,48030,2021-05-14 09:49:50:572
-3.4644,1.5012,0.5124,8.111,-2.1366,-5.0811,-11.5754,3.6378,5.5934,0.8845,0.7404,2.6512,48530,2021-05-14 09:49:51:072
5.047,-4.312,-3.0789,8.1211,-1.4894,-5.2914,-3.0742,-2.8225,2.2125,-0.6194,-0.8094,-1.3897,49030,2021-05-14 09:49:51:572
9.0333,-3.7206,0.3089,8.7419,-1.3554,-4.2323,-9.4627,0.6501,5.5068,0.3775,-0.1814,-0.6255,49530,2021-05-14 09:49:52:072
5.5258,-2.3128,1.9513,8.6927,-2.4314,-3.8334,3.9594,-0.7271,0.2174,-1.0226,-1.4166,-2.2425,50030,2021-05-14 09:49:52:572
9.4978,-2.7916,-3.2106,5.5203,-7.9156,-1.7437,4.2857,5.3895,-1.7705,-1.3769,-0.9096,0.0452,50530,2021-05-14 09:49:53:072
10.3477,-15.5384,-0.589,5.0889,-8.3474,-0.7712,6.7552,-6.4681,0.408,0.3268,-1.5351,2.7886,51030,2021-05-14 09:49:53:572
-4.1683,-5.0733,1.3575,6.6614,-6.2808,-3.514,-12.6733,4.5234,2.4414,0.2095,-1.6597,-2.0904,51530,2021-05-14 09:49:54:072
2.4804,-5.7485,-3.134,3.0128,-9.1078,-2.0352,-3.5922,5.9713,0.3306,-1.9529,-0.4771,0.1662,52030,2021-05-14 09:49:54:572
4.2856,-6.8618,-5.1212,4.7454,-8.4821,-1.3056,-1.3912,-1.7291,-3.7031,1.5968,0.6115,1.6054,52530,2021-05-14 09:49:55:072
8.3582,-12.2535,-0.3615,5.9264,-6.9981,-3.4748,1.7006,-6.0842,3.3516,-0.5424,-0.8894,-2.6707,53030,2021-05-14 09:49:55:572
9.9551,-12.9718,0.5076,3.9073,-8.9227,-1.1352,5.796,-4.1803,1.7655,-0.1264,0.1668,1.6304,53530,2021-05-14 09:49:56:072
-1.0127,-8.011,2.2649,7.4498,-5.0548,-3.8884,-6.6909,-6.8516,4.1661,0.3708,-1.0024,-0.6897,54030,2021-05-14 09:49:56:572
5.4037,-15.5192,-2.1644,3.682,-9.0297,-1.0381,2.0261,-6.3618,-0.9484,0.7007,-1.1949,0.6353,54530,2021-05-14 09:49:57:072
5.0781,-11.7436,-5.102,7.1765,-5.6827,-3.5178,4.8591,-5.9052,3.0245,-0.92,-1.8699,-1.8576,55030,2021-05-14 09:49:57:572
8.1906,-10.1466,-0.1245,4.3359,-8.739,-1.0007,1.9122,-8.9035,-0.7223,0.6646,-0.0739,0.1881,55530,2021-05-14 09:49:58:072
5.8155,-9.9144,2.15,6.2956,-6.5513,-3.6901,-4.2746,-1.9049,0.8827,-1.2895,-0.6127,-1.6212,56030,2021-05-14 09:49:58:572
5.5234,-6.9264,-2.8299,5.7471,-7.8491,-1.238,-1.2072,1.8955,-0.9382,0.3519,-0.0238,1.1961,56530,2021-05-14 09:49:59:072
5.6767,-4.8123,-4.0486,3.9931,-8.7723,-1.809,1.4512,3.8236,-2.1155,-0.6671,-0.0721,-0.3567,57030,2021-05-14 09:49:59:572
3.3854,-4.0965,-2.2577,6.961,-5.7378,-3.8461,-2.8568,1.6787,1.1964,0.6921,0.2114,0.5718,57530,2021-05-14 09:50:00:072
8.7508,-3.5147,-3.5458,7.2945,-5.3503,-3.7861,1.3288,1.7812,0.0651,0.5192,-0.1631,-0.1203,58030,2021-05-14 09:50:00:572
7.6854,-10.9391,-4.0582,8.1518,-4.2378,-3.4291,-0.603,-6.8569,-0.7706,-0.1662,0.5315,-0.3427,58530,2021-05-14 09:50:01:072
7.8913,-6.1962,-5.0254,8.5135,-3.7974,-3.0447,1.5118,-0.3901,0.1136,-1.6237,0.2468,0.537,59030,2021-05-14 09:50:01:572
8.2121,-3.4812,-4.0654,8.5046,-2.6013,-4.1322,-0.4478,-1.7932,-0.5258,0.2175,-0.2089,-0.5577,59530,2021-05-14 09:50:02:072
8.4922,-4.5107,-2.9784,8.7464,-3.4351,-2.8056,-2.0339,-0.3328,0.1593,-0.3525,0.4948,1.9523,60030,2021-05-14 09:50:02:572
4.051,-3.9863,-3.2417,6.7032,-5.6661,-4.374,0.2375,-0.1542,-0.6825,0.1753,-0.3549,1.2199,60530,2021-05-14 09:50:03:072
5.4492,-7.2185,-2.9808,4.5091,-7.9057,-3.6521,1.5554,1.0391,0.7264,0.4447,0.0183,0.1368,61030,2021-05-14 09:50:03:572
3.9744,-8.0325,-5.3008,3.7659,-8.6331,-2.7309,-2.3292,-1.6095,-0.1418,-0.3299,0.2321,1.1863,61530,2021-05-14 09:50:04:072
3.1843,-7.3071,-2.5809,4.8241,-7.9073,-3.2208,-1.6853,-0.063,-0.586,-0.3812,-0.0709,-0.3629,62030,2021-05-14 09:50:04:572
2.9975,-4.2641,-2.7318,2.6857,-9.0294,-2.7253,4.188,-1.2441,0.6735,0.584,1.8961,1.6958,62530,2021-05-14 09:50:05:072
2.9425,-7.6567,-2.7677,4.6535,-7.9911,-3.2647,-1.711,0.3344,0.497,-0.2712,0.0977,-0.5223,63030,2021-05-14 09:50:05:572
1.4964,-9.5002,-1.4102,1.3243,-9.5761,-1.6475,7.1463,-1.9903,0.7616,-0.1637,-0.2505,0.4294,63530,2021-05-14 09:50:06:072
4.695,-7.9847,-3.699,4.6933,-7.7392,-3.7746,-0.6351,0.5782,0.7172,0.1045,-0.347,0.4252,64030,2021-05-14 09:50:06:572
4.221,-8.0349,-1.3719,0.8798,-9.6546,-1.478,3.3411,1.6197,0.1062,-0.664,0.8063,-1.8473,64531,2021-05-14 09:50:07:073
2.2242,-7.1539,-3.5554,5.3669,-7.4123,-3.5249,-3.1427,0.2584,-0.0305,0.2334,-0.3531,0.0501,65030,2021-05-14 09:50:07:572
-6.9839,1.1684,1.0989,3.4974,-8.6437,-3.0373,5.5036,-6.9726,1.9018,1.2572,1.1802,4.2919,65530,2021-05-14 09:50:08:072
7.6662,-8.3486,-4.6998,5.4785,-7.4953,-3.1586,2.3174,-1.7993,-1.1281,-1.9933,0.1668,-2.6829,66030,2021-05-14 09:50:08:572
7.106,0.6656,-2.9521,8.4855,-0.2143,-4.9113,-1.4441,-0.5297,0.7936,2.2083,1.0825,1.0757,66530,2021-05-14 09:50:09:072
8.8705,-3.6344,-1.9417,4.4185,-8.6557,-1.3135,4.4776,2.2079,-0.4239,-0.2615,-0.5919,0.1472,67030,2021-05-14 09:50:09:572
0.0455,-2.2865,0.4932,7.4763,-5.6474,-2.8952,-7.433,3.0872,3.8645,1.8466,1.5278,1.3433,67530,2021-05-14 09:50:10:072
11.2647,-14.1569,-2.557,4.5172,-8.4281,-2.1753,0.3596,4.8819,-1.3862,-2.1906,0.3818,-0.5687,68030,2021-05-14 09:50:10:572
12.6318,-9.019,-8.6215,2.1042,-9.4731,-1.4154,6.8994,-4.1054,-2.5979,-1.9169,-0.4887,-1.0733,68530,2021-05-14 09:50:11:072
17.2335,-20.243,-6.4404,3.4345,-9.1844,-0.147,10.1574,-4.0819,-3.8441,1.9322,-2.6615,2.2034,69030,2021-05-14 09:50:11:572
21.9333,-31.7375,-0.079,1.3212,-9.5965,1.5272,22.5567,-22.5195,-15.5588,2.2272,2.8937,3.8875,69530,2021-05-14 09:50:12:072
2.6169,-10.2879,2.1452,0.2167,-9.7324,1.1848,1.6652,0.079,-1.3452,0.2053,0.0666,0.3488,70030,2021-05-14 09:50:12:572
1.1325,-8.825,-0.0144,0.4999,-9.7938,0.0532,1.1257,-0.4726,0.859,-0.4417,0.8253,-0.1436,70530,2021-05-14 09:50:13:072
0.7781,-10.7955,0.51,0.9217,-9.7626,-0.114,-0.7351,-0.6726,0.4099,-0.0641,0.1478,-0.0739,71030,2021-05-14 09:50:13:572
0.4573,-9.9192,0.1676,1.2865,-9.7184,-0.2609,0.5837,-1.1631,0.9103,0.0195,-0.0525,0.0098,71530,2021-05-14 09:50:14:072
6.0573,-13.1897,-1.4748,1.7287,-9.6376,-0.5463,1.7308,0.9058,0.6329,-0.1008,-0.1216,-0.0983,72030,2021-05-14 09:50:14:572
-3.6033,-2.0734,0.6009,4.1151,-8.8519,-0.938,-10.3002,7.4577,4.2549,1.8198,1.482,2.3201,72530,2021-05-14 09:50:15:072
-5.3223,-10.7236,7.5465,6.088,-7.2258,-2.6257,-12.0131,-4.0826,10.2483,-1.0134,-2.7336,-2.2174,73030,2021-05-14 09:50:15:572
5.5474,-6.0573,-4.0486,5.7404,-7.1777,-3.4204,-0.504,0.7823,-0.2934,-0.38,0.4026,0.7043,73530,2021-05-14 09:50:16:072
7.6351,-6.0214,-3.6033,5.9957,-6.468,-4.2879,1.6394,0.4466,0.6846,0.0226,-0.0464,0.113,74030,2021-05-14 09:50:16:572
6.6702,-6.8211,-3.4955,6.3283,-6.2661,-4.1059,0.6738,0.4274,0.4597,0.1484,-0.2144,-0.1845,74530,2021-05-14 09:50:17:072
6.7109,-7.0629,-3.4189,6.6178,-6.43,-3.3212,-0.4279,-0.2501,0.1211,0.5107,-0.1069,-0.3299,75030,2021-05-14 09:50:17:572
6.8785,-7.8721,-3.1771,6.2512,-6.9384,-2.992,0.6615,0.1911,0.0118,-0.146,0.1973,0.0837,75530,2021-05-14 09:50:18:072
5.7604,-7.0174,-3.292,6.0594,-7.0733,-3.0696,-0.299,0.0559,-0.2224,0.1637,-0.1338,-0.0171,76030,2021-05-14 09:50:18:572
7.1299,-7.0102,-3.7565,6.2751,-6.7407,-3.3699,0.5517,-0.1243,-0.4434,-0.0391,-0.0941,0.0012,76530,2021-05-14 09:50:19:072
8.3199,-5.8754,-3.8834,6.7344,-6.4288,-3.0804,1.444,1.0731,-0.619,0.5803,-0.4472,-0.5767,77030,2021-05-14 09:50:19:572
-4.142,-2.9568,-2.5139,6.8339,-6.0132,-3.6482,-4.8259,-1.5836,0.1777,-0.4148,-0.5657,-1.4923,77530,2021-05-14 09:50:20:072
7.4723,-4.3167,-2.0016,6.5392,-7.1024,-1.7217,0.9331,2.7857,-0.2799,0.9762,-0.369,0.9218,78030,2021-05-14 09:50:20:572
5.4755,-10.9008,-0.6919,4.067,-8.8821,-0.859,1.1287,-2.1675,0.3336,0.171,-0.5956,0.6878,78530,2021-05-14 09:50:21:072
5.7557,-10.501,-1.9441,7.5343,-5.5052,-3.016,-1.7787,-4.9957,1.0719,-0.4698,-0.0525,-2.78,79030,2021-05-14 09:50:21:572
6.438,-13.4147,-1.7334,4.0769,-8.9061,-0.4801,2.3612,-4.5086,-1.2533,0.0654,0.799,0.7489,79530,2021-05-14 09:50:22:072
2.0997,-6.1148,0.1604,7.5704,-5.6721,-2.5859,-1.9392,-7.2149,-1.1379,-0.8515,-0.9285,-1.3592,80030,2021-05-14 09:50:22:572
10.9056,-10.6997,-2.5762,2.8748,-9.3506,-0.6878,6.665,-2.2595,-0.5705,-0.416,-0.124,0.3751,80531,2021-05-14 09:50:23:073
-2.0662,-4.5586,-0.1101,6.6986,-6.7319,-2.4457,-6.3758,2.7789,0.7571,0.5864,-0.08,-0.16,81030,2021-05-14 09:50:23:572
5.2553,-7.0725,-0.1053,1.944,-9.388,-2.0631,1.3122,5.1084,0.419,-0.9389,0.2211,-0.7898,81530,2021-05-14 09:50:24:072
4.4173,-10.1586,-1.5778,2.8728,-9.3367,-0.862,1.5445,-0.8219,-0.7158,0.2181,-0.2779,2.8436,82030,2021-05-14 09:50:24:572
1.6951,-10.1754,-0.6656,6.1544,-7.2974,-2.2454,-6.8487,-4.101,4.5542,-0.0745,-1.653,-2.7794,82530,2021-05-14 09:50:25:072
9.7252,-5.782,0.0263,2.909,-9.2355,-1.5535,4.557,4.7371,-0.8244,-0.7159,-0.0568,-1.8039,83030,2021-05-14 09:50:25:572
12.4762,-15.3085,-1.0942,1.4159,-9.7035,0.0924,11.0603,-5.6051,-1.1866,0.5938,-1.4135,2.1814,83530,2021-05-14 09:50:26:072
3.9049,-12.6821,-3.3998,3.4921,-9.1633,0.102,-9.6631,5.5385,0.5073,0.8564,0.5253,3.7232,84030,2021-05-14 09:50:26:572
-7.2736,-9.9072,2.229,5.458,-7.3897,-3.4311,-7.0921,-6.4982,2.3837,-0.1002,-1.0391,0.4459,84530,2021-05-14 09:50:27:072
4.4963,-2.7533,-5.2625,3.8993,-8.8041,-1.8583,-0.86,0.8678,-2.1368,0.7422,-0.5266,0.6683,85030,2021-05-14 09:50:27:572
1.4533,-4.9991,-0.5722,3.3253,-9.1585,-1.1112,-1.8721,4.1594,0.539,0.3201,0.7483,0.6946,85531,2021-05-14 09:50:28:073
1.0319,-6.8714,3.9049,4.606,-8.4718,-1.7842,-3.5741,1.6005,5.6891,-0.7752,0.0263,-1.7434,86030,2021-05-14 09:50:28:572
6.3279,-18.8088,-3.8762,2.954,-9.2473,-1.39,10.5581,-4.4852,-2.5523,0.6316,-1.7355,2.8295,86530,2021-05-14 09:50:29:072
-2.4924,-5.3367,-3.5099,2.4914,-9.42,-1.1078,-6.7761,5.2071,0.0341,1.485,1.5131,1.7318,87030,2021-05-14 09:50:29:572
-6.3973,10.8888,7.4292,4.6545,-8.3236,-2.2855,-14.8602,7.3482,4.104,-0.6988,-1.2779,-3.8729,87530,2021-05-14 09:50:30:072
7.9104,-11.4586,2.7581,3.5955,-9.0026,-1.4817,-14.8237,-1.3347,5.233,-0.0904,-0.0892,-3.5204,88030,2021-05-14 09:50:30:572
11.3342,-10.0892,-3.1963,4.1307,-8.7555,-1.565,-2.9397,7.2537,2.7211,-0.1472,-1.6408,-0.8534,88530,2021-05-14 09:50:31:072
8.4994,-6.9384,-1.2282,6.7,-7.158,-0.2079,1.9076,0.7036,-1.2856,0.1674,0.1319,-0.1155,89030,2021-05-14 09:50:31:572
6.6439,-4.537,-1.3312,7.3356,-6.3857,-1.2578,-0.4012,0.976,0.4851,-0.2266,-0.2364,0.1307,89530,2021-05-14 09:50:32:072
10.0604,-6.7756,-2.1596,6.8237,-6.7641,-1.9635,3.2368,-0.0115,-0.196,-0.0403,-0.3995,0.2676,90030,2021-05-14 09:50:32:572
15.7203,-7.3813,-1.324,6.9801,-6.7109,-1.5531,8.7402,-0.6704,0.2291,-0.4294,-0.1741,1.8222,90530,2021-05-14 09:50:33:072
-0.2155,-1.6568,-1.9609,9.3964,-2.5486,-1.1762,-4.5277,-1.1056,-2.2247,0.741,0.5272,0.9865,91030,2021-05-14 09:50:33:572
-4.5633,-1.3862,1.0846,9.1692,-2.2204,-2.677,-9.9698,-1.6118,2.0144,0.0843,-0.7941,-2.0928,91530,2021-05-14 09:50:34:072
14.1449,-6.9623,-4.0462,7.5167,-6.0531,-1.7406,6.6282,-0.9093,-2.3056,-0.5455,0.4362,-1.6121,92030,2021-05-14 09:50:34:572
12.4929,-7.1658,-1.8052,7.0862,-6.4585,-2.0599,8.3694,-1.8437,0.0515,-0.0648,-0.1765,2.24,92531,2021-05-14 09:50:35:073
2.727,-1.4916,-2.0614,9.3417,-1.9542,-2.2547,-1.8533,-2.2157,0.0543,0.6829,0.9713,3.1172,93030,2021-05-14 09:50:35:572
7.6686,-5.8179,-0.4214,9.3196,-2.3761,-1.9156,0.917,-3.2454,0.3558,-0.4862,0.3867,-2.6182,93530,2021-05-14 09:50:36:072
11.9495,-4.798,-1.9824,6.5675,-7.156,-1.3529,5.3819,2.358,-0.6295,-0.4001,-0.7532,1.2113,94030,2021-05-14 09:50:36:572
10.1586,-7.4388,-1.7789,8.4678,-4.7871,-1.245,1.6908,-2.6517,-0.5339,0.3604,0.7208,2.3812,94530,2021-05-14 09:50:37:072
10.1706,-6.11,-0.644,8.9451,-3.6165,-1.7541,2.8438,-2.4231,0.6413,-0.2443,-0.471,-2.3897,95030,2021-05-14 09:50:37:572
11.0325,-7.0892,-1.2258,7.4366,-6.3327,-0.8741,3.5959,-0.7565,-0.3517,-0.1466,-0.0757,0.6267,95530,2021-05-14 09:50:38:072
1.4916,-0.2634,-2.6935,9.4408,-1.708,-2.0311,-5.9328,-0.7454,-0.323,0.5736,-0.2407,-0.4465,96031,2021-05-14 09:50:38:573
8.1068,-6.7253,-1.5036,7.4071,-6.3935,-0.6541,1.2254,0.089,-0.7316,-0.0782,0.3195,-1.1674,96530,2021-05-14 09:50:39:072
7.8051,-4.379,-1.6209,8.9454,-3.9421,-0.7804,-3.5202,-0.8175,-0.1773,0.7001,0.5424,1.9426,97030,2021-05-14 09:50:39:572
12.3613,-5.6575,-2.6312,8.7261,-4.2088,-1.5206,2.3327,-0.9891,-0.1625,-0.8564,0.4533,-1.2205,97530,2021-05-14 09:50:40:072
14.1952,-7.5824,-0.9242,8.1829,-5.2532,-1.2705,6.2729,-1.9815,0.503,-0.7062,-0.1759,1.2541,98030,2021-05-14 09:50:40:572
6.5338,-4.3431,1.5443,9.4101,-0.828,-2.6336,-5.925,1.8963,4.0074,0.2969,-0.135,-2.2352,98530,2021-05-14 09:50:41:072
9.0261,-6.4141,-2.083,7.6297,-5.7796,-2.1341,1.0324,0.2646,0.2667,0.0617,-0.7178,-0.0721,99031,2021-05-14 09:50:41:573
4.6687,-2.1859,-2.3415,9.1769,-3.2807,-1.0916,-0.5362,-1.7399,-1.1997,0.5101,0.7892,2.0776,99530,2021-05-14 09:50:42:072
13.6541,-6.6295,-1.6879,8.4837,-4.6528,-1.5965,4.9181,-2.5459,0.094,-0.0464,-0.4655,-1.8607,100030,2021-05-14 09:50:42:572
12.6869,-6.8139,-1.5754,7.878,-5.8287,-0.3662,3.9114,-0.9188,-0.8804,0.1118,0.4667,2.1961,100530,2021-05-14 09:50:43:072
-0.407,-0.3089,-0.2562,9.5458,-1.8404,-1.2887,-8.1883,-0.2689,0.4771,-0.1894,0.2712,-0.4105,101030,2021-05-14 09:50:43:572
9.3182,-5.6192,-1.6903,7.8138,-5.6853,-1.6711,1.6476,0.3091,-0.2114,-0.664,-0.0397,-0.0379,101530,2021-05-14 09:50:44:072
9.1626,-4.6783,-2.0949,9.3474,-2.3893,-1.7575,-1.8511,-0.9554,-0.3279,0.3653,0.482,2.2773,102030,2021-05-14 09:50:44:572
10.3094,-6.541,-1.8004,7.8642,-5.7802,-0.9561,-1.844,-0.3518,-0.8812,-0.0208,-0.3604,-0.5651,102530,2021-05-14 09:50:45:072
10.1035,-7.5178,-0.237,7.5113,-6.18,-1.2484,-0.5394,-0.3921,0.3889,0.0373,-0.2004,-0.0922,103030,2021-05-14 09:50:45:572
4.6591,-5.1475,-1.3623,6.2898,-7.4002,-1.3586,-1.9792,1.9605,-0.1058,-0.0702,0.3024,0.785,103531,2021-05-14 09:50:46:073
5.2672,-4.4939,-0.6393,7.7785,-5.8318,-1.2864,-2.6734,-3.333,1.2679,0.482,-0.3684,-0.2242,104030,2021-05-14 09:50:46:572
9.2177,-6.7923,-1.3958,7.8244,-5.9103,-0.134,0.5228,-0.2288,-1.1462,-0.3885,0.0367,0.0086,104530,2021-05-14 09:50:47:072
7.422,-5.4468,-0.9433,7.8981,-5.6972,-1.1541,-0.3977,0.4043,0.2992,0.2065,-0.1857,-0.0086,105030,2021-05-14 09:50:47:572
9.5936,-6.4093,-3.5721,7.0999,-6.3216,-2.4083,2.4937,-0.0877,-1.1638,0.0464,-0.3384,-0.9603,105530,2021-05-14 09:50:48:072
7.2544,-1.4676,-3.3255,9.395,-1.4739,-2.3941,-5.5498,0.0168,0.8388,1.0733,0.4404,0.4691,106030,2021-05-14 09:50:48:572
-5.0494,-3.1675,-1.8579,7.8338,-5.6026,-1.8472,-9.3929,1.0982,1.3961,0.3054,0.0318,0.0483,106530,2021-05-14 09:50:49:072
6.5098,0.3591,-2.6719,9.5946,-1.0936,-1.7085,-1.0543,-0.708,-0.5336,0.5846,0.3115,0.8851,107030,2021-05-14 09:50:49:572
8.5665,-5.3103,-0.4381,7.7874,-5.7414,-1.601,1.459,-0.5742,0.4374,0.1069,-0.38,0.0947,107530,2021-05-14 09:50:50:072
6.2465,-3.5338,-0.5315,9.3439,-1.9494,-2.2499,-3.0974,-1.5844,1.7184,0.3696,-0.3922,-2.0604,108030,2021-05-14 09:50:50:572
11.576,-7.1994,-0.498,8.0895,-5.4811,-0.8293,2.8103,0.0658,-0.5518,0.0489,0.0379,1.3818,108530,2021-05-14 09:50:51:072
9.2608,-5.1164,-1.2043,9.2041,-3.0648,-1.4357,0.7874,-1.1498,-0.1507,0.0531,0.0538,-1.89,109030,2021-05-14 09:50:51:572
9.0453,-4.4772,-2.375,8.5542,-4.7096,-0.9035,0.2438,-0.2592,-1.4196,-0.8436,1.0641,1.9908,109530,2021-05-14 09:50:52:072
10.5201,-5.5761,-2.4397,8.1,-5.2268,-1.8003,1.9466,-0.7538,0.1451,-0.3164,-0.0086,-0.7856,110030,2021-05-14 09:50:52:572
11.2049,-5.7437,-2.5235,9.035,-3.6572,-1.0792,-0.9132,-0.6552,-1.2452,-0.5266,0.7892,1.8149,110530,2021-05-14 09:50:53:072
6.6679,-3.6895,-2.0231,8.0349,-5.1257,-2.3105,-0.7422,0.4905,0.5316,-0.463,-0.4386,-0.8375,111030,2021-05-14 09:50:53:572
8.5497,-2.6983,-2.9233,9.1745,-2.9759,-1.7728,-0.4668,1.0318,-1.1314,0.226,0.3525,1.8918,111530,2021-05-14 09:50:54:072
10.3693,-7.58,-3.1723,7.9061,-5.5332,-1.7459,2.315,-2.2609,-1.4388,-0.1772,0.2724,-0.9029,112030,2021-05-14 09:50:54:572
8.4563,-4.3191,-1.5275,9.1355,-3.4172,-1.0181,-1.0111,-0.3671,-1.9937,0.0959,0.5266,2.1258,112531,2021-05-14 09:50:55:073
10.1059,-6.189,-1.5993,7.8747,-5.645,-1.5144,0.8438,-0.535,0.0456,-0.5345,0.0929,-1.0592,113030,2021-05-14 09:50:55:572
8.8155,-4.5442,-1.8507,8.6757,-4.1236,-1.9745,-1.0837,0.6185,0.2363,0.036,0.0354,0.9829,113530,2021-05-14 09:50:56:072
7.2903,-5.8921,-1.5706,7.9728,-5.4013,-1.8522,-0.6892,-0.5043,0.2919,0.0367,0.0434,-0.168,114030,2021-05-14 09:50:56:572
8.1618,-5.7197,-2.1069,8.0764,-5.3066,-1.6682,0.0855,-0.4132,-0.4387,0.204,0.014,-0.0599,114530,2021-05-14 09:50:57:072
9.7205,-5.6455,-1.6472,8.5014,-4.6806,-1.41,2.1719,-0.8887,-0.2677,-0.4924,0.3659,-0.7514,115029,2021-05-14 09:50:57:571
11.1115,-2.794,-1.2378,9.0713,-3.1833,-1.9363,2.4675,0.487,0.7837,-1.2999,0.1778,0.4435,115531,2021-05-14 09:50:58:073
10.6207,-2.2793,-2.3056,9.0611,-2.531,-2.7677,1.5595,0.2518,0.462,-0.4636,0.0299,0.1515,116030,2021-05-14 09:50:58:572
9.5912,-3.5721,-2.8635,9.3746,-2.1547,-1.9092,-0.9371,-0.896,-0.9243,0.5968,-0.1772,-0.1167,116530,2021-05-14 09:50:59:072
8.8921,-2.8036,-0.7709,9.3679,-2.254,-1.8254,-0.4136,-0.4155,0.408,0.7654,-0.2144,-0.4044,117030,2021-05-14 09:50:59:572
9.6845,-6.6966,-3.893,6.9993,-5.6467,-3.9108,2.5229,-1.4174,-0.5883,0.8638,-1.4734,3.08,117530,2021-05-14 09:51:00:072
4.4724,-8.0852,-1.221,3.2967,-8.7785,-2.8706,2.9863,-0.3208,0.3263,-0.7563,0.0226,-2.0134,118030,2021-05-14 09:51:00:572
8.0589,-6.0549,-3.6248,2.9008,-9.275,-1.3156,-3.9304,-4.7935,1.4596,-0.1484,-0.314,0.5418,118530,2021-05-14 09:51:01:072
1.5969,-9.8426,-0.3903,0.7254,-9.7278,-1.0067,1.0439,-0.5361,-0.0827,-0.2364,-0.4691,0.4264,119030,2021-05-14 09:51:01:572
1.8483,-9.8162,-3.3447,5.049,-8.0249,-2.5057,-2.6466,-1.4225,-0.9972,-0.1552,-0.1741,-1.7098,119530,2021-05-14 09:51:02:072
-9.0525,-9.2703,-2.8826,4.3752,-8.4834,-2.2495,2.8044,-7.1385,-10.1689,0.5913,1.3916,1.9462,120031,2021-05-14 09:51:02:573
2.2984,-12.4594,-2.0566,-0.4577,-9.7785,-0.5845,3.819,-0.4594,-2.3224,0.0409,-0.0623,0.7123,120530,2021-05-14 09:51:03:072
8.1977,-7.4579,-2.6336,8.5876,-3.4957,-3.1943,1.4872,-2.6957,1.583,0.9566,-0.9603,-3.474,121030,2021-05-14 09:51:03:572
6.9025,-2.9951,-2.4684,8.6374,-3.234,-3.3328,-1.8796,-0.3185,0.9786,0.3256,-0.1607,1.4642,121530,2021-05-14 09:51:04:072
4.2401,-11.6119,-0.2873,4.7199,-8.3787,-1.9209,-0.0096,-2.9803,1.6117,0.1228,-0.8491,2.1893,122030,2021-05-14 09:51:04:572
9.5624,-13.7188,-3.9049,7.5351,-5.4603,-3.0947,-1.7842,-4.9514,2.2262,-0.16,0.4948,-2.4239,122530,2021-05-14 09:51:05:072
3.237,-17.1329,-0.2753,3.3325,-9.2223,-0.1215,0.5102,-7.1469,0.9834,0.0183,0.0269,1.7275,123030,2021-05-14 09:51:05:572
3.2825,-12.6893,-1.7454,7.679,-5.4559,-2.7271,-4.3965,-7.2334,0.9818,0.0055,-1.2963,-2.4801,123531,2021-05-14 09:51:06:073
14.3963,-7.0533,1.0798,3.7933,-8.7284,-2.3658,10.603,1.6751,3.4456,0.6096,-1.4569,-1.9218,124030,2021-05-14 09:51:06:572
4.9775,-0.419,-2.2434,5.7979,-7.4451,-2.6694,0.858,-3.1486,-0.9584,0.4191,1.4948,0.8723,124530,2021-05-14 09:51:07:072
4.7645,-8.3294,-2.3559,5.4576,-7.8592,-2.149,0.0365,-0.1366,-0.2652,-0.0379,0.0996,-0.0831,125030,2021-05-14 09:51:07:572
5.4157,-8.0756,-2.1213,5.3889,-7.882,-2.237,0.0268,-0.1936,0.1157,-0.2309,0.1637,0.0275,125530,2021-05-14 09:51:08:072
4.3574,-6.4548,-1.9489,5.6904,-7.6336,-2.3489,-0.1936,0.6551,0.5749,-0.1613,-0.0922,-0.1142,126030,2021-05-14 09:51:08:572
4.5418,-7.9416,-2.3104,4.8921,-8.1922,-2.264,-0.403,-0.266,0.4464,0.2669,0.1607,0.5174,126530,2021-05-14 09:51:09:072
5.5402,-12.1194,-1.6855,2.331,-9.4291,-1.3523,0.5105,2.1481,-0.3893,-0.463,0.1399,-0.0574,127030,2021-05-14 09:51:09:572
-3.4165,-5.205,-0.2921,7.2547,-5.542,-3.5815,-0.3517,-1.4734,-1.8868,0.2963,-0.5321,-1.2065,127530,2021-05-14 09:51:10:072
9.4858,-7.4986,-4.4915,6.9174,-6.4991,-2.4661,2.5684,-0.9996,-2.0254,0.0202,0.0764,0.2553,128030,2021-05-14 09:51:10:572
3.5817,-9.6606,-3.1005,3.6865,-8.4183,-3.4223,-2.4784,-0.9122,1.6523,1.3781,0.1863,2.3928,128530,2021-05-14 09:51:11:072
-1.6496,-10.3789,-0.7398,-0.1196,-9.766,-0.8834,-0.693,0.256,-1.0453,0.1417,0.4691,0.1533,129030,2021-05-14 09:51:11:572
1.4796,-9.5936,-2.3128,1.3777,-9.4383,-2.2783,0.0575,-0.1608,-0.0388,0.0067,-0.2877,0.1576,129530,2021-05-14 09:51:12:072
-1.3144,-9.2392,-0.8859,-1.0861,-9.6687,-1.2274,0.481,-0.516,0.1542,0.1362,0.3048,0.5504,130030,2021-05-14 09:51:12:572
-0.7733,-9.9335,-0.4334,-1.3906,-9.6683,-0.8717,1.1775,0.2144,-0.0555,0.0367,0.3787,0.2896,130530,2021-05-14 09:51:13:072
0.2562,-8.5329,-2.0207,1.0439,-9.5439,-1.9989,-0.9492,0.6078,0.841,-0.1081,-0.3018,-0.3885,131030,2021-05-14 09:51:13:572
7.1515,-19.4026,-10.7571,2.2004,-9.3903,-1.7748,-2.1405,3.4222,0.5913,0.8302,0.0305,0.4698,131530,2021-05-14 09:51:14:072
2.0063,-9.8857,-0.1341,1.6589,-9.6526,-0.4951,-0.0818,0.7823,-0.184,0.0342,0.1558,0.237,132030,2021-05-14 09:51:14:572
2.9832,-9.1842,-0.565,1.8806,-9.6184,-0.3466,1.1026,0.4342,-0.2184,-0.0806,-0.1533,0.0171,132530,2021-05-14 09:51:15:072
1.8148,-9.8138,-0.8284,1.8606,-9.6068,-0.647,-0.14,0.0401,0.22,-0.0947,0.0745,-0.0538,133030,2021-05-14 09:51:15:572
3.4931,-10.4196,-2.5618,2.1085,-9.4787,-1.3708,3.9442,1.2292,-3.9496,-0.5522,0.383,-0.058,133531,2021-05-14 09:51:16:073
1.5155,-10.1514,-1.9417,2.2309,-9.4638,-1.2766,-0.288,-0.1406,0.0236,0.1185,0.0165,0.2468,134030,2021-05-14 09:51:16:572
2.9257,-6.857,1.913,1.5419,-9.6437,-0.8901,1.5537,-0.0342,1.005,0.4771,-0.0214,-0.1118,134530,2021-05-14 09:51:17:072
2.2075,-10.2041,-1.4054,1.4575,-9.6909,-0.3641,0.2429,-0.2791,-0.2382,0.0867,0.0898,-0.0819,135030,2021-05-14 09:51:17:572
1.3862,-9.6702,0.1772,1.1785,-9.7348,-0.1201,0.4549,0.1178,0.3043,0.0171,-0.0757,-0.0599,135530,2021-05-14 09:51:18:072
0.9361,-9.6199,-0.1484,1.1285,-9.7414,-0.0341,-0.0824,-0.026,-0.164,-0.0244,0.0715,-0.0446,136031,2021-05-14 09:51:18:573
1.2498,-9.517,0.1676,1.1257,-9.7417,0.0389,-0.0263,-0.0553,-0.1185,0.0067,0.0391,0.0098,136530,2021-05-14 09:51:19:072
1.0726,-9.8066,0.1269,1.1349,-9.7405,0.0755,0.0268,0.0803,0.1196,0.0122,-0.0434,-0.0012,137030,2021-05-14 09:51:19:572
0.8284,-9.8833,0.0718,1.1367,-9.7402,0.0807,-0.3083,-0.143,-0.0089,0.0092,0.0079,-0.0287,137531,2021-05-14 09:51:20:073
1.1803,-9.5936,0.0551,1.1634,-9.7372,0.0599,-0.0254,0.0767,0.0488,-0.0031,-0.0073,0,138030,2021-05-14 09:51:20:572
1.2163,-9.6893,0.1963,1.1808,-9.735,0.0782,0.0352,-0.0863,0.078,0.0165,0,0.0061,138530,2021-05-14 09:51:21:072
1.233,-9.7875,0.1772,1.1635,-9.7359,0.1669,0.0698,-0.0514,0.0139,-0.0086,-0.0434,0.033,139033,2021-05-14 09:51:21:575
2.1308,-9.402,-0.2801,1.6385,-9.6687,-0.0517,-0.0104,0.2424,-0.0565,0.0684,-0.0776,0.1466,139530,2021-05-14 09:51:22:072
1.4676,-9.7683,0.3112,0.5782,-9.7893,-0.0792,1.5967,0.937,0.3471,-0.1338,0.0812,0.664,140030,2021-05-14 09:51:22:572
3.0287,-8.4587,-3.2465,3.0605,-9.0274,-2.3043,1.7239,-1.8325,-0.0349,-1.1466,0.7117,-1.1539,140530,2021-05-14 09:51:23:072
8.0469,-6.7253,-3.9289,6.6193,-6.3991,-3.3773,0.5018,-0.4301,0.7962,-1.088,-0.4068,-2.3048,141030,2021-05-14 09:51:23:572
3.1987,2.569,-0.8021,9.2439,-1.6082,-2.8522,-0.1853,-0.9982,0.6193,0.3818,-0.1478,0.515,141530,2021-05-14 09:51:24:072
7.3502,-6.7684,-1.0678,6.5734,-7.263,-0.4575,0.4937,-2.6713,0.262,0.4478,0.0977,2.0965,142030,2021-05-14 09:51:24:572
4.0941,-7.6543,-2.9449,5.4635,-7.9338,-1.8374,-1.9799,0.7344,0.5158,-0.6994,0.2175,-1.5553,142530,2021-05-14 09:51:25:072
4.6424,-9.1123,-1.3934,3.1628,-9.2486,-0.7939,0.4074,-0.3012,-0.6188,0.3665,0.6261,2.0366,143030,2021-05-14 09:51:25:572
8.3486,-12.2799,-0.9385,6.6844,-6.4022,-3.2406,-2.2747,-2.8253,2.5982,-0.6506,-0.8167,-3.3494,143530,2021-05-14 09:51:26:072
4.8267,-1.8555,-3.6751,7.9294,-4.7072,-3.3372,-0.3828,2.7085,2.8858,0.6353,-0.4771,-0.9872,144030,2021-05-14 09:51:26:572
6.8091,-8.0709,-1.9896,6.7697,-6.969,-1.3322,0.501,-2.0323,-1.6275,-0.3922,0.1045,0.1014,144530,2021-05-14 09:51:27:072
7.9009,-5.0446,-2.4229,6.7693,-6.4003,-3.0632,1.1315,1.3557,0.6403,0.0629,-0.6341,0.2046,145030,2021-05-14 09:51:27:572
4.0342,-8.9663,-3.8283,7.5538,-5.3246,-3.28,2.7125,-3.3328,-3.4023,0.0586,-0.7978,-1.0629,145530,2021-05-14 09:51:28:072
7.6231,-14.2527,0.7159,3.3276,-9.2137,-0.453,5.2287,-5.1894,-1.2216,0.5938,-0.3164,1.4942,146030,2021-05-14 09:51:28:572
-3.6033,-3.4309,-2.8683,6.8557,-6.4285,-2.8007,-9.8493,0.6021,-1.6839,0.1772,-1.1753,-2.4764,146530,2021-05-14 09:51:29:072
5.2146,-3.2801,-2.6384,2.6216,-9.1484,-2.3675,8.4491,-0.563,-2.0914,-0.9218,-0.8986,-1.1148,147030,2021-05-14 09:51:29:572
13.3668,-17.7482,1.063,2.3293,-9.524,0.1944,6.3449,-4.3216,-5.2868,0.5919,0.1924,3.2186,147530,2021-05-14 09:51:30:072
-4.537,-0.2969,-0.1317,3.024,-9.3288,-0.0048,-12.082,8.1294,1.0084,0.3641,0.7905,2.7605,148030,2021-05-14 09:51:30:572
4.8794,-12.2966,-2.909,4.1915,-8.2012,-3.368,4.4733,-9.2624,1.1973,-0.7984,-1.8521,0.3231,148530,2021-05-14 09:51:31:072
8.995,-5.6264,-1.7597,5.5354,-7.7335,-2.3923,3.8018,2.3367,0.6467,0.2529,-0.0531,-0.9444,149030,2021-05-14 09:51:31:572
11.3916,-2.1284,0.0335,7.05,-6.5361,-1.9355,-1.9767,-1.7957,-1.1242,-0.5773,-0.3488,0.1949,149530,2021-05-14 09:51:32:072
7.5489,-5.5976,-2.6217,7.1528,-6.1162,-2.757,-1.1841,-0.2826,0.5635,-0.0342,0.0086,0.1955,150030,2021-05-14 09:51:32:572
7.9033,-6.0334,-2.083,7.0621,-6.208,-2.7853,1.3614,0.0238,0.7083,0.2071,0.1216,0.4239,150530,2021-05-14 09:51:33:072
6.6176,-6.8235,-2.9473,6.5028,-6.8988,-2.5081,1.8449,-1.0414,0.2489,0.0079,-0.2309,-0.0929,151031,2021-05-14 09:51:33:573
5.3247,-6.4859,-1.075,6.2126,-7.2832,-2.1282,-0.2565,-0.5466,0.5476,0.1698,0.0678,0.1888,151530,2021-05-14 09:51:34:072
-1.2091,-5.0613,-1.664,3.0482,-9.2444,-1.1915,-2.9953,2.6645,0.9994,0.5388,0.3629,1.485,152030,2021-05-14 09:51:34:572
1.1037,-5.679,-0.3543,6.299,-6.9385,-2.8896,-4.825,1.6804,2.2647,-0.3176,-1.3647,-2.9829,152530,2021-05-14 09:51:35:072
9.4786,-5.387,1.1205,4.3357,-8.716,-1.1842,-2.2143,1.2781,-3.4441,0.3928,0.4472,-3.1624,153030,2021-05-14 09:51:35:572
15.8879,-7.6423,-4.5226,0.5787,-9.7891,-0.0967,6.0604,-0.7119,-6.1809,-1.1478,0.7929,-1.9169,153530,2021-05-14 09:51:36:072
25.4695,-14.3748,-1.3312,-3.2427,-9.2547,0.0746,19.1713,-4.5287,-3.1248,-0.8491,1.0165,0.0953,154030,2021-05-14 09:51:36:572
16.7163,-13.3956,-1.2139,-3.8109,-8.9527,-1.2233,21.4804,-4.8281,-0.9442,-0.7874,0.9536,-3.0397,154530,2021-05-14 09:51:37:072
-0.1628,-17.5016,-12.8712,-5.7479,-7.9251,0.5689,27.4622,-2.7209,-8.853,0.0446,0.8668,-3.1087,155030,2021-05-14 09:51:37:572
7.3287,-6.6391,-2.9137,0.944,-9.7025,-1.0683,6.8487,0.5114,-1.8249,0.3488,-0.4343,0.6365,155530,2021-05-14 09:51:38:072
4.2593,-8.3821,-1.731,1.2644,-9.724,-0.1222,3.3157,2.6683,-0.9839,0.325,0.2896,0.46,156030,2021-05-14 09:51:38:572
2.4636,-14.224,-0.2849,2.5293,-9.3837,-1.3113,-2.8961,-1.4504,0.6646,0.1851,0.6182,-0.3372,156530,2021-05-14 09:51:39:072
1.6137,-10.137,-1.257,2.5709,-9.2113,-2.171,-0.2581,-0.2356,1.1189,-0.4233,-0.0568,0.0586,157030,2021-05-14 09:51:39:572
3.7086,-8.2863,-0.6943,2.2782,-9.3442,-1.9149,1.3143,3.1659,0.9147,-0.0635,-0.2712,-0.2804,157530,2021-05-14 09:51:40:072
2.4756,-11.1139,-0.5076,3.0834,-9.0796,-2.0552,-0.6078,-2.0343,1.5477,-0.1497,0.2938,-0.2896,158030,2021-05-14 09:51:40:572
4.4891,-3.8499,0.0622,3.98,-8.932,-0.741,-0.9896,7.7581,-0.2204,0.2657,0.2077,-0.0379,158530,2021-05-14 09:51:41:072
1.2713,-0.9122,-0.0359,3.9988,-8.9298,-0.6621,-4.1875,7.2535,-1.5802,-0.0428,0.3451,0.1142,159030,2021-05-14 09:51:41:572
3.8283,-8.3007,-0.8284,3.7241,-9.0287,-0.8859,0.1042,0.728,0.0575,-0.055,0.0232,-0.1448,159530,2021-05-14 09:51:42:072
1.9297,-6.2249,-1.1612,3.7411,-8.9705,-1.3061,0.8265,0.7894,-0.9971,-0.1014,-0.2816,0.2126,160030,2021-05-14 09:51:42:572
8.5976,-14.267,0.3998,4.013,-8.7365,-1.9337,-1.1879,0.3581,0.0796,-0.2004,-0.2486,-0.0354,160530,2021-05-14 09:51:43:072
2.806,-8.7843,-2.6624,4.2533,-8.7571,-1.1807,3.0301,-3.6094,-1.4978,0.113,0.2181,-0.0452,161030,2021-05-14 09:51:43:572
5.2361,-8.9304,-2.0135,3.3971,-8.9866,-1.9674,1.7671,0.9737,0.5242,-0.3946,0.1032,0.0977,161530,2021-05-14 09:51:44:072
2.6384,-10.1897,-2.0183,3.7231,-9.0053,-1.1017,-0.4461,0.0366,1.1018,0.537,-0.3476,0.0189,162030,2021-05-14 09:51:44:572
0.7254,-12.8473,-0.8835,2.1446,-9.5571,0.4822,-1.4191,-3.2902,-1.3656,0.2798,0.0281,0.6603,162531,2021-05-14 09:51:45:073
1.1564,-13.0699,1.9082,1.3666,-9.7076,-0.2564,-2.2689,-4.4378,0.4704,0.4948,-1.0201,0.8845,163030,2021-05-14 09:51:45:572
-0.6871,-8.983,-5.0278,1.6676,-9.6387,0.6967,1.9243,-4.1489,0.8635,-0.1124,0.0208,-0.5913,163530,2021-05-14 09:51:46:072
3.5817,-7.264,1.8675,1.7566,-9.6123,-0.8294,0.4286,0.0341,0.469,-0.7001,0.7831,-0.1674,164030,2021-05-14 09:51:46:572
5.2194,-10.6231,1.5467,2.2904,-9.5317,-0.268,2.929,-1.0914,1.8147,0.2107,-0.4074,0.2755,164530,2021-05-14 09:51:47:072
0.6081,-9.6989,-0.2346,1.3779,-9.6948,0.5311,-2.8331,0.8327,-1.0886,0.171,-0.0018,-0.0079,165030,2021-05-14 09:51:47:572
-0.1844,-9.268,-0.0263,1.4669,-9.6905,0.3365,-3.3267,1.1147,-2.2505,0.0556,0.1252,-0.1533,165530,2021-05-14 09:51:48:072
2.6791,-10.6111,0.0527,1.8785,-9.6197,-0.32,0.8006,-0.9914,0.3727,-0.0269,-0.171,0.1155,166030,2021-05-14 09:51:48:572
1.6831,-8.9304,-0.4381,2.2151,-9.5502,-0.2391,0.0714,0.7467,-0.1128,-0.0715,-0.0684,-0.0391,166530,2021-05-14 09:51:49:072
3.2896,-9.3326,0.1365,3.2407,-9.2494,-0.3428,-0.0804,0.0556,-0.9022,0.0171,0.0904,-0.3965,167030,2021-05-14 09:51:49:572
3.6057,-9.7899,-1.0942,3.7087,-9.0556,-0.6424,0.5686,0.4519,-0.4748,0.0599,0.0128,0.1735,167530,2021-05-14 09:51:50:072
5.2146,-9.0764,-1.075,3.1319,-9.2625,-0.7531,2.2885,0.2551,-0.3462,-0.1723,0.2053,-0.3916,168030,2021-05-14 09:51:50:572
3.0239,-8.7939,-0.2562,3.7266,-9.071,-0.0045,-1.105,0.6577,-0.0434,0.7172,-0.4423,-0.0018,168530,2021-05-14 09:51:51:072
2.0853,-8.9783,-0.4405,2.9237,-9.3605,-0.0618,-0.87,0.0354,-0.5767,-0.5064,0.6194,0.0281,169030,2021-05-14 09:51:51:572
5.7652,-12.5001,1.0654,3.3394,-9.2128,-0.3787,-2.4063,-0.0356,-0.0411,-0.0324,-0.1032,0.237,169530,2021-05-14 09:51:52:072
5.8538,-5.8562,-0.0862,4.1535,-8.7786,-1.3622,-1.8093,2.1783,-0.376,-0.7416,0.8467,-0.5559,170030,2021-05-14 09:51:52:572
5.1284,-6.4093,-2.5738,7.1163,-6.1292,-2.8216,-1.984,-0.286,0.6242,0.4362,0.0061,-0.1869,170530,2021-05-14 09:51:53:072
7.2688,-6.2848,-1.8531,6.878,-6.4343,-2.7319,2.2918,-0.9494,0.4838,-0.6139,0.1197,-0.1588,171030,2021-05-14 09:51:53:572
3.7206,-3.383,0.0144,7.5772,-5.7326,-2.4276,2.1817,1.4458,-0.1115,0.6683,0.609,0.7587,171530,2021-05-14 09:51:54:072
4.3359,-8.1666,-0.7159,3.5536,-9.1322,-0.3807,0.5942,0.8876,-0.2797,0.0385,0.4954,1.1057,172030,2021-05-14 09:51:54:572
4.6543,-10.1658,-2.9784,2.6902,-9.4254,-0.3091,2.0811,-0.7053,-2.7588,-0.0764,-0.5296,-0.6603,172529,2021-05-14 09:51:55:071
4.5873,-7.592,-2.806,6.6625,-6.7508,-2.4917,-1.5126,-1.9234,-0.1251,-0.7862,-0.6084,-1.4942,173030,2021-05-14 09:51:55:572
8.272,-4.7142,-3.0718,7.2556,-5.7895,-3.1635,1.1266,0.7238,0.7868,-0.1839,0.3409,0.6652,173530,2021-05-14 09:51:56:072
6.1028,-5.5522,-0.8619,6.419,-7.2585,-1.5103,-0.4804,1.5256,0.7924,0.485,0.2792,1.0947,174030,2021-05-14 09:51:56:572
5.5162,-10.489,0.4836,3.2941,-9.2089,-0.7178,1.1367,-2.0018,-1.1508,-0.3647,-0.0293,0.2908,174530,2021-05-14 09:51:57:072
2.1213,-2.4134,-0.7805,7.7027,-5.4794,-2.6105,-5.8711,0.2409,1.1261,-0.1454,-0.6231,-0.4771,175030,2021-05-14 09:51:57:572
4.6926,-7.367,-2.5857,7.2203,-6.1967,-2.3746,-2.6758,-1.3845,-0.1187,-0.3378,0.0617,0.2596,175530,2021-05-14 09:51:58:072
7.0773,-6.1148,-2.071,7.0354,-6.3198,-2.5948,0.8384,0.8471,0.0304,-0.3384,0.1558,-0.0764,176030,2021-05-14 09:51:58:572
8.1858,-5.6599,-1.5012,7.6374,-5.6771,-2.369,0.7458,0.3017,1.9429,0.5944,-0.3054,-0.5357,176530,2021-05-14 09:51:59:072
4.0438,-6.4452,-0.7709,6.3319,-7.4771,-0.4136,-1.8824,-0.1908,-1.2095,0.4056,0.0892,1.9022,177030,2021-05-14 09:51:59:572
5.351,-7.9152,-1.0678,5.2223,-8.1546,-1.549,-1.938,3.6886,-2.7017,-0.5443,-0.1888,-0.7789,177530,2021-05-14 09:52:00:072
-0.1796,-5.1044,-0.9768,7.0672,-5.0596,-4.5416,-7.0407,0.2214,3.5762,0.6634,0.1668,1.8943,178030,2021-05-14 09:52:00:572
12.5767,-7.2496,4.2952,2.5301,-9.2792,-1.9144,-12.9175,-2.9202,27.8737,-0.7055,-1.4459,-2.1124,178530,2021-05-14 09:52:01:072
0.0311,-17.4944,-1.9225,2.1272,-9.3584,-2.0163,-7.8685,-9.5701,2.9596,0.1967,1.1857,-0.4649,179031,2021-05-14 09:52:01:573
-3.8307,-5.2912,-2.8084,2.2073,-9.4337,-1.5176,-5.7829,4.2077,-1.3491,0.1112,0.1967,-0.9682,179530,2021-05-14 09:52:02:072
-4.5538,-17.9852,3.7014,2.2924,-9.4281,-1.4236,-7.4231,-8.7202,5.1492,-0.6347,-0.609,-1.8723,180030,2021-05-14 09:52:02:572
4.7309,-10.3477,-0.2562,-1.2294,-9.6939,-0.8288,3.916,2.5691,0.5836,-0.0611,6.00E-04,0.4154,180530,2021-05-14 09:52:03:072
6.9983,-0.9649,-2.2673,8.4181,-3.4267,-3.6829,-1.1241,-2.9007,1.5962,-0.5663,-0.3396,-3.5589,181030,2021-05-14 09:52:03:572
11.5041,0.5866,-5.0733,8.7209,-4.1554,-1.6878,4.294,3.6957,2.2026,-0.1955,1.2285,2.1454,181530,2021-05-14 09:52:04:072
4.6807,-10.2328,2.1811,4.986,-8.3683,-1.1318,-0.5644,-2.0823,3.674,0.3256,0.0342,-1.9597,182030,2021-05-14 09:52:04:572
3.3255,-12.3876,-0.9242,5.7146,-7.967,-0.2008,-3.0719,-4.9618,-0.6064,0.9859,1.0898,2.2852,182530,2021-05-14 09:52:05:072
-8.3821,-4.5873,3.711,7.374,-6.0714,-2.2209,0.522,-5.6866,1.3111,0.3183,-1.6109,-1.9432,183030,2021-05-14 09:52:05:572
8.6503,-9.6726,2.2721,3.7446,-8.6314,-2.7655,5.9675,0.584,2.1649,-1.5601,-0.0568,-1.6054,183530,2021-05-14 09:52:06:072
9.9144,-11.0038,-8.5856,-0.3138,-9.7286,-1.1944,15.247,-0.9204,-3.9861,-0.5192,1.3182,-2.3457,184030,2021-05-14 09:52:06:572
3.8355,-8.4228,-2.5402,-0.1945,-9.7934,-0.4716,14.7954,0.5005,0.967,-0.2706,-0.562,-2.0769,184530,2021-05-14 09:52:07:072
1.4844,-14.3556,-9.481,-2.6739,-9.3777,-1.0391,-4.0863,-10.0226,-10.5343,-0.4771,-0.5669,-2.7104,185029,2021-05-14 09:52:07:571
4.4508,-3.9049,-1.8842,3.8534,-8.8507,-1.728,0.5974,4.9458,-0.1563,0.3659,0.7575,0.576,185530,2021-05-14 09:52:08:072
9.2153,-8.4755,-3.1268,5.0324,-8.1475,-2.1128,0.9602,0.5938,-2.6685,0.0299,-0.3067,0.6274,186030,2021-05-14 09:52:08:572
3.462,-8.6526,-2.0686,3.3855,-8.9692,-2.0646,1.3047,-2.3027,0.5707,0.0935,-0.3684,0.2712,186530,2021-05-14 09:52:09:072
0.6919,-9.0261,-2.4373,2.6102,-9.3163,-1.6013,-0.8409,0.781,0.2773,-0.0092,-0.4019,0.0208,187030,2021-05-14 09:52:09:572
2.6312,-8.4946,-1.5443,2.6719,-9.2083,-2.0587,-0.0407,0.7137,0.5144,-0.11,0.0501,-0.0275,187530,2021-05-14 09:52:10:072
3.5386,-8.0613,0.0431,2.226,-9.5043,-0.9396,1.3126,1.4431,0.9827,0.5883,0.2834,0.3439,188030,2021-05-14 09:52:10:572
3.2896,-10.2161,-1.6544,2.073,-9.5816,-0.2559,-0.6413,-1.142,0.0931,-0.6854,0.7471,-1.306,188530,2021-05-14 09:52:11:072
9.9072,-9.7947,0.2418,7.108,-6.6873,-0.9631,2.7992,-3.1074,1.2049,0.0269,-0.2028,-0.3751,189030,2021-05-14 09:52:11:572
5.1787,-7.6183,-1.4317,6.6069,-7.2281,-0.5236,1.3873,-1.269,-0.2952,-0.0043,0.171,0.6133,189530,2021-05-14 09:52:12:072
5.6551,-5.9185,-0.5291,6.6552,-7.183,-0.5328,-3.1434,1.8585,-1.4279,0.1118,-0.1008,-0.0049,190031,2021-05-14 09:52:12:573
5.2385,-6.7876,0.0096,6.6221,-7.2291,-0.2403,-4.4354,3.9634,-0.4661,-0.1759,-0.0397,0.0586,190530,2021-05-14 09:52:13:072
1.6927,-3.7397,-1.0822,6.6581,-7.1584,-0.7728,0.618,-1.034,0.5203,-0.2957,-0.0562,-0.3519,191030,2021-05-14 09:52:13:572
4.3191,-4.7597,-0.1987,6.0006,-7.6993,-0.9402,-5.8871,2.9965,1.1387,0.4343,0.4453,-0.1875,191530,2021-05-14 09:52:14:072
8.5258,-9.5289,0.158,6.5897,-7.2539,-0.3556,2.3864,-1.3461,-0.9725,-0.1381,-0.0409,0.0122,192030,2021-05-14 09:52:14:572
4.6304,-6.043,-0.51,6.6263,-7.2125,-0.4922,0.7225,0.0865,-0.7233,-0.0336,0.16,-0.0079,192530,2021-05-14 09:52:15:072
6.3542,-7.5872,-0.9625,6.5659,-7.2714,-0.4312,-0.3876,-0.0792,-1.403,-0.168,0.1631,-0.014,193030,2021-05-14 09:52:15:572
3.7326,-4.3048,0.2083,6.7186,-7.0793,-0.9562,-3.8073,2.1472,-0.1643,-0.2107,0.0312,-0.1032,193532,2021-05-14 09:52:16:074
7.3358,-9.4571,-0.498,6.7678,-7.0755,-0.5522,1.2581,-2.6205,1.541,0.2126,-0.2669,-0.1839,194030,2021-05-14 09:52:16:572
10.1682,-9.8497,-0.6153,6.6336,-7.2212,-0.1397,3.5346,-2.6285,-0.4756,-0.2083,0.6353,-0.0953,194530,2021-05-14 09:52:17:072
8.4252,-5.8682,0.2322,6.8899,-6.7747,-1.6743,1.5353,0.9065,1.9065,-0.1338,-1.1258,0.0257,195030,2021-05-14 09:52:17:572
13.884,-8.2001,-1.8268,7.8905,-5.7008,-1.188,7.1399,-2.3143,0.5431,0.113,0.46,2.934,195530,2021-05-14 09:52:18:072
3.7804,-2.0207,-1.0463,9.473,-1.861,-1.7231,-4.6286,-3.0982,-0.7391,1.3677,0.8326,-0.8949,196030,2021-05-14 09:52:18:572
5.2385,-4.4484,-0.1173,8.9628,-3.9271,-0.6454,5.4723,-0.289,-1.8345,0.2883,0.1283,-3.3372,196530,2021-05-14 09:52:19:072
7.1802,-4.3455,0.5555,7.0072,-6.8464,-0.4445,4.2068,1.0403,-0.9673,-0.2443,-0.1252,-0.6597,197030,2021-05-14 09:52:19:572
13.702,-5.4013,-0.0886,6.5779,-7.2536,-0.5347,8.1285,-1.8886,-1.8019,-0.598,0.4453,2.9028,197530,2021-05-14 09:52:20:072
1.6592,-5.3391,-1.6113,8.8951,-4.0393,-0.8557,-7.2359,-1.2998,-0.7556,-0.0104,1.4575,3.6963,198030,2021-05-14 09:52:20:572
3.3351,-2.6959,0.0024,8.181,-5.3406,-0.8483,0.4445,-4.4949,2.1528,0.0415,-0.7776,-0.8888,198530,2021-05-14 09:52:21:072
12.3661,-10.8194,-3.4285,6.8622,-6.974,0.666,9.7907,-4.8286,0.4803,0.2205,0.7074,-0.2981,199030,2021-05-14 09:52:21:572
7.5537,-7.9799,-0.5746,7.2452,-6.6075,-0.1349,5.6335,-1.3952,-1.8072,-0.7746,0.4496,-0.4038,199530,2021-05-14 09:52:22:072
2.3894,-4.4484,-1.7789,7.2978,-6.4413,-1.1924,-0.0973,0.7925,2.4536,0.0745,-0.1069,6.00E-04,200030,2021-05-14 09:52:22:572
3.0598,-3.4357,0.7685,6.9251,-6.8432,-1.1764,-2.645,-0.3713,3.4598,-0.1032,0.3244,0.4191,200530,2021-05-14 09:52:23:072
8.3582,-9.0214,-0.7829,6.6985,-7.1377,-0.5947,0.5466,-0.8635,1.0028,0.1423,-0.2138,0.0629,201030,2021-05-14 09:52:23:572
9.1674,-7.3334,-2.3727,6.5412,-7.3057,-0.1028,2.6262,-0.0278,-2.2699,-0.5889,0.0831,0.135,201530,2021-05-14 09:52:24:072
11.643,-9.4667,0.8475,7.1021,-6.6631,-1.1548,4.3079,-5.9424,0.9022,0.5394,-1.1802,-0.1906,202030,2021-05-14 09:52:24:572
5.8107,-7.8937,-0.7446,6.9293,-6.8789,0.9143,-1.6811,-0.2834,-0.9647,0.212,0.664,0.0983,202530,2021-05-14 09:52:25:072
7.2544,-8.3677,-0.8954,6.5708,-7.2628,0.4969,1.1707,-1.2665,-1.7716,-0.6139,0.6005,-0.2346,203030,2021-05-14 09:52:25:572
6.9432,-8.0278,-0.5219,6.5208,-7.3106,-0.4531,0.4172,-0.7177,-0.1416,-0.2731,0.1301,0.08,203530,2021-05-14 09:52:26:072
5.1811,-7.2449,-1.6448,6.0556,-7.6799,-0.7211,-1.4728,-0.6269,0.0126,-0.405,0.4129,0.237,204031,2021-05-14 09:52:26:573
5.3654,-9.6414,-1.0918,5.6389,-7.9981,-0.6354,-0.5416,-1.1358,-0.7269,-0.8625,0.6487,-0.0721,204530,2021-05-14 09:52:27:072
3.9337,-9.2033,-0.8715,4.7808,-8.5094,-0.9513,-1.2899,-1.2961,0.1058,-0.1717,0.0452,0.1277,205030,2021-05-14 09:52:27:572
6.0693,-7.5561,-0.407,5.0746,-8.3253,-1.0527,0.5099,0.1593,0.5892,-0.1301,0.0244,0.1796,205531,2021-05-14 09:52:28:073
2.5809,-5.7006,-0.7135,6.452,-7.3142,-1.022,-3.8085,1.6716,0.2843,0.0916,-0.1142,-0.2309,206031,2021-05-14 09:52:28:573
6.3015,-5.6431,-2.2027,7.892,-5.489,-1.9384,4.8404,2.2497,0.8586,-0.6665,-0.463,-0.4942,206530,2021-05-14 09:52:29:072
12.2894,-15.1026,-1.5969,5.2182,-8.2269,-1.1218,3.7134,-1.6453,-0.5011,-0.1833,-1.2669,2.0525,207030,2021-05-14 09:52:29:572
8.2289,-11.9519,-0.419,7.8694,-4.7637,-3.3985,0.3923,-6.8437,2.5248,-0.3091,-1.8552,-3.251,207530,2021-05-14 09:52:30:072
-8.8849,-3.9504,1.0295,7.6106,-5.7108,-2.3741,-4.4502,-0.076,2.5967,2.2608,1.1564,2.7122,208030,2021-05-14 09:52:30:572
11.8848,-10.6063,0.3711,6.2532,-7.5389,-0.4833,7.5472,-2.2564,-1.4728,0.8882,-0.8125,-3.1343,208530,2021-05-14 09:52:31:072
-6.4667,-6.8402,3.1987,3.0096,-9.1948,-1.6023,16.1457,4.2228,-6.0865,-1.7623,-1.8082,-4.0335,209030,2021-05-14 09:52:31:572
11.1785,-14.5591,-2.8802,0.1531,-9.7761,0.7576,18.9123,0.2014,-1.8697,-0.1216,0.4679,0.1784,209530,2021-05-14 09:52:32:072
14.4011,-7.2018,-6.2776,3.1887,-9.2666,0.3648,13.1059,2.5061,-6.7776,0.5315,1.3127,3.3909,210030,2021-05-14 09:52:32:572
4.5011,-7.762,-5.2696,5.3516,-7.9309,-2.1521,3.5427,1.7504,0.4578,0.6732,-0.1509,2.306,210530,2021-05-14 09:52:33:072
10.5273,-8.8849,-4.1492,6.0875,-7.2791,-2.4754,4.0452,-1.8862,-1.2847,-0.6353,0.2553,0.0299,211030,2021-05-14 09:52:33:572
7.6207,-5.8419,-3.3088,7.2134,-6.0505,-2.7438,0.5164,0.2872,-0.4568,0.2431,-0.2236,-0.1155,211530,2021-05-14 09:52:34:072
2.7725,-4.5633,-2.0949,7.4446,-5.785,-2.6985,-0.3219,0.0149,1.2811,0.7495,-0.099,-0.1106,212031,2021-05-14 09:52:34:573
9.7205,-5.2218,-2.7126,9.1666,-2.9503,-1.8546,1.9832,-0.732,-1.2339,-0.3629,0.3176,-1.0067,212530,2021-05-14 09:52:35:072
9.6774,-2.4062,-3.134,9.1078,-2.967,-2.1011,0.5533,0.5822,-1.1362,-0.8894,-0.0202,0.2248,213031,2021-05-14 09:52:35:573
2.7821,-2.3128,-1.2929,8.9391,-3.2883,-2.3347,-2.0433,-4.3527,-0.4795,-0.1008,-0.3494,1.4942,213530,2021-05-14 09:52:36:072
6.9887,-3.0406,0.8404,9.2922,-2.0345,-2.3845,-8.3968,4.6274,1.2018,0.4472,-0.036,-1.2798,214030,2021-05-14 09:52:36:572
5.5498,-13.6709,0.0168,7.2826,-6.312,-1.8149,8.7759,-9.7842,-0.7023,0.3818,-0.0751,-3.4117,214530,2021-05-14 09:52:37:072
12.6246,-13.4506,0.5914,6.6917,-7.1236,-0.8038,0.6114,3.5611,0.1653,-0.6878,-0.471,1.8821,215030,2021-05-14 09:52:37:572
6.4811,-4.9297,-1.5945,9.3524,-2.8628,-0.7126,-4.0971,-0.0557,-1.5523,0.3085,0.6634,2.7067,215530,2021-05-14 09:52:38:072
5.5091,-5.8826,1.9297,9.2752,-2.9167,-1.2781,-8.6893,2.0019,2.9104,-0.3879,0.1723,-3.7202,216031,2021-05-14 09:52:38:573
15.5886,-8.9232,-0.747,8.0042,-5.2607,-2.1044,10.423,0.1456,0.7135,-0.3763,-0.1643,-2.6512,216532,2021-05-14 09:52:39:074
11.5448,-6.608,0.1532,7.235,-6.4485,-1.4975,5.7233,-4.7388,-2.0851,-0.0751,-0.857,2.0049,217030,2021-05-14 09:52:39:572
7.6686,-5.8969,-2.1644,8.9539,-3.8808,-0.9681,-9.3508,1.8385,0.2285,0.4924,0.8326,2.7849,217531,2021-05-14 09:52:40:073
11.5281,-7.5824,-1.0247,8.7967,-4.2428,-0.887,-0.7126,-1.3717,-0.4656,0.0959,-0.0721,-2.0226,218030,2021-05-14 09:52:40:572
11.7651,-5.0757,-1.6831,8.8249,-4.1319,-1.1043,3.2214,-0.0138,-0.8531,-0.0079,0.6726,0.4844,218530,2021-05-14 09:52:41:072
9.8976,-3.7206,-2.4325,9.2842,-2.7809,-1.4967,0.6134,-0.9397,-0.9358,-0.2547,0.2242,0.0599,219031,2021-05-14 09:52:41:573
-2.8012,-8.0828,1.3599,9.4321,-1.6551,-2.1133,-0.9032,1.2134,-2.365,0.3616,-0.8442,1.9462,219530,2021-05-14 09:52:42:072
10.7428,-6.6224,-1.8364,7.8675,-5.773,-0.972,1.7975,-0.487,-2.2521,-0.2388,-0.3726,-1.0299,220031,2021-05-14 09:52:42:573
11.3509,-6.371,-2.4397,8.5937,-4.664,-0.7529,5.9383,-2.2501,-0.5199,-0.7159,0.4313,2.3292,220530,2021-05-14 09:52:43:072
-2.2769,-0.735,-1.8818,9.4847,-1.1693,-2.2008,-11.7616,0.4342,0.319,0.7789,-0.3848,-2.105,221030,2021-05-14 09:52:43:572
9.0022,-8.9783,-3.3136,7.5312,-6.2213,-0.8638,2.5648,-1.9599,-2.6386,-0.6536,0.2963,-1.0275,221529,2021-05-14 09:52:44:071
14.4921,-7.0318,-0.2298,8.3412,-5.0587,-1.0018,4.0657,-2.4154,0.2736,-0.1967,0.1637,2.7953,222030,2021-05-14 09:52:44:572
2.7892,-5.7485,2.3942,9.3465,-1.9883,-2.2044,-6.4723,-3.5135,4.7178,-0.014,-0.6677,-2.4086,222530,2021-05-14 09:52:45:072
9.7348,-5.8059,-2.4014,7.3709,-6.4078,-0.883,2.1924,0.3868,-1.4359,-0.4215,0.2749,-0.9206,223030,2021-05-14 09:52:45:572
8.3725,-5.6695,-0.9361,8.3511,-5.1238,-0.4192,2.0921,-2.0237,0.9095,-0.4123,0.5315,2.7373,223530,2021-05-14 09:52:46:072
5.2337,-9.0285,-2.0901,7.4951,-6.3208,-0.2038,-0.8791,-2.4547,0.1203,0.5705,-0.4038,-0.3983,224029,2021-05-14 09:52:46:571
6.2417,-6.5218,-0.6728,6.5825,-7.2612,-0.3412,-4.3206,1.2556,0.2116,-0.2156,-0.058,0.2266,224530,2021-05-14 09:52:47:072
8.7101,-10.8481,-0.68,6.2901,-7.5096,-0.4601,1.4043,-0.2492,0.5981,0.1906,0.0538,-0.7611,225030,2021-05-14 09:52:47:572
8.5736,-6.1172,-0.8715,6.1971,-7.5159,-1.1301,2.3765,1.3987,0.2586,-0.2211,-0.2663,-0.2639,225530,2021-05-14 09:52:48:072
6.3949,-2.217,1.5107,9.5686,-1.6127,-1.4179,0.0456,-0.8769,5.4636,0.2975,0.1729,-1.3439,226030,2021-05-14 09:52:48:572
10.0197,-4.7764,-0.9481,7.6317,-6.0976,-0.8637,2.388,1.3212,-0.0844,-0.5718,0.1668,-0.6219,226530,2021-05-14 09:52:49:072
7.9966,0.3136,-1.4533,9.7076,-1.3772,-0.1908,-2.9547,0.3312,0.7399,0.5644,0.6396,0.8503,227030,2021-05-14 09:52:49:572
10.2208,-7.1682,-2.5091,7.7533,-5.8974,-1.1303,5.5048,0.9423,1.4459,-0.8717,0.2877,-1.0348,227530,2021-05-14 09:52:50:072
11.6789,-5.2792,-1.1444,9.0972,-3.5415,-0.9322,-3.9238,-0.8845,0.4712,0.2981,0.0629,2.7373,228030,2021-05-14 09:52:50:572
10.6997,-5.94,-0.668,9.3067,-2.7754,-1.3609,-2.7368,-0.3038,2.0527,-0.3903,-0.2297,-2.8112,228530,2021-05-14 09:52:51:072
10.2089,-7.9248,0.8715,7.3984,-6.3026,-1.3084,3.9869,-0.0652,-1.1693,0.1503,-0.6164,1.2456,229030,2021-05-14 09:52:51:572
4.7956,-1.4509,-0.4788,9.5315,-1.803,-1.439,-5.2626,1.2691,-0.7852,0.0965,0.5321,0.7086,229530,2021-05-14 09:52:52:072
8.2648,-6.0094,-0.8116,7.1244,-6.7105,-0.6187,0.757,1.0393,0.9818,0.1539,-0.069,0.0116,230030,2021-05-14 09:52:52:572
6.9576,-7.9535,-0.1604,7.2338,-6.612,-0.351,-1.6132,-0.1839,-0.2304,-0.1851,0.2114,0.0751,230530,2021-05-14 09:52:53:072
6.5314,-6.2656,-0.2897,6.9079,-6.9239,-0.715,-0.3594,0.668,0.4935,-0.0898,-0.1387,-0.0452,231030,2021-05-14 09:52:53:572
5.2385,-7.0629,-1.3431,6.7988,-7.035,-0.675,-0.1963,1.1223,-0.2449,-0.0012,-0.2095,0.0312,231529,2021-05-14 09:52:54:071
8.9998,-5.5617,-1.1229,7.1073,-6.7155,-0.7474,0.2379,1.3418,0.1127,0.0342,-0.3012,-0.1051,232030,2021-05-14 09:52:54:572
7.8482,-7.3526,-0.9457,7.7114,-5.971,-1.0262,0.1264,-1.3946,0.0773,-0.1185,0.0122,-0.0464,232530,2021-05-14 09:52:55:072
12.6558,-9.9431,-3.6105,6.9161,-6.8284,-1.3079,2.6996,-1.0235,-1.5092,-0.1784,-0.1362,0.7367,233029,2021-05-14 09:52:55:571
9.4858,-2.976,-0.6009,9.3062,-2.0985,-2.2716,0.7172,1.3432,2.1903,-0.3348,-0.6683,-1.317,233530,2021-05-14 09:52:56:072
9.3685,-5.8395,-1.5251,8.7387,-4.4388,-0.3195,-1.8972,-1.2427,-1.8405,-0.2596,0.5015,1.7599,234030,2021-05-14 09:52:56:572
11.2168,-3.869,-0.3591,8.7652,-4.095,-1.6041,2.1907,-0.9639,0.7494,-0.2181,-0.5492,-0.9096,234530,2021-05-14 09:52:57:072
10.9104,-5.4085,-1.2091,8.7184,-4.4207,-0.7863,2.4532,-0.5055,-0.4295,-0.3097,0.1533,1.9016,235030,2021-05-14 09:52:57:572
11.6957,-5.5545,0.3639,8.828,-3.8664,-1.8133,2.9706,-2.8302,2.0742,0.1326,-0.3616,-2.5962,235530,2021-05-14 09:52:58:072
13.0221,-5.2864,-0.9481,7.667,-6.0772,-0.6744,4.6847,0.5107,-1.0494,-0.3836,-0.4441,-0.1142,236030,2021-05-14 09:52:58:572
4.9081,-1.9704,1.2857,9.6056,-1.2649,-1.5174,-4.6609,-0.3473,2.6894,0.2077,0.5113,1.5669,236530,2021-05-14 09:52:59:072
13.2663,-5.4636,2.8084,8.9005,-3.8456,-1.4706,2.9898,-1.2721,2.6171,0.1051,-0.3433,-2.2345,237030,2021-05-14 09:52:59:572
9.8737,-3.9265,-0.6776,7.4299,-6.3862,-0.4282,1.8214,2.7288,-0.8183,-0.7007,-0.5302,1.7562,237530,2021-05-14 09:53:00:072
3.6488,-3.8954,-0.7542,8.9208,-4.0654,-0.2481,3.6368,-0.3183,-0.7719,0.2321,1.1692,2.6634,238030,2021-05-14 09:53:00:572
0.7063,1.3288,0.7254,9.5513,-1.8358,-1.2543,-8.9074,2.8576,1.9133,0.2511,-0.6677,-2.7984,238530,2021-05-14 09:53:01:072
8.5066,-6.5074,1.1803,8.3754,-4.8036,-1.7172,-2.9191,0.0386,-1.141,-0.7923,-0.7471,-2.6078,239030,2021-05-14 09:53:01:572
12.3277,-7.9464,-0.838,6.5974,-7.0295,-1.7976,3.8756,3.8074,0.081,0.2761,0.1185,-1.2853,239530,2021-05-14 09:53:02:072
24.1312,-18.0882,-4.2282,6.4339,-7.3851,-0.4857,0.6984,4.7227,-1.2166,-0.8937,-2.1319,2.2052,240030,2021-05-14 09:53:02:572
12.5696,-6.031,-2.1452,8.6664,-4.5712,0.4106,-5.1215,-1.1105,-2.044,-0.5278,0.3097,2.8332,240530,2021-05-14 09:53:03:072
-0.0718,0.0407,-0.9888,9.0366,-3.8049,-0.1832,-11.2038,1.6363,-1.6466,0.2712,-0.193,1.2138,241030,2021-05-14 09:53:03:572
-2.3487,-0.4118,-0.759,9.2544,-2.9847,-1.272,-11.493,-1.9689,0.4149,0.3512,0.0849,-3.5161,241530,2021-05-14 09:53:04:072
8.8538,-5.715,1.3695,9.0417,-3.5601,-1.3207,-13.6122,0.3232,2.9871,0.6781,-0.6249,-4.3323,242030,2021-05-14 09:53:04:572
10.1658,-12.6869,0.0718,7.3379,-6.4414,-0.9131,18.6612,3.2958,1.5628,0.0092,0.1539,-0.9872,242530,2021-05-14 09:53:05:072
21.3419,-6.7038,0.4429,5.353,-8.1619,-0.9486,4.4307,-1.0743,2.1851,-0.942,0.27,-3.747,243030,2021-05-14 09:53:05:572
9.3781,-5.9687,-0.5411,5.2377,-8.1818,-1.3396,4.3032,0.2475,-0.2621,-0.5693,-0.2059,0.1142,243530,2021-05-14 09:53:06:072
8.4731,-5.4923,-0.3639,7.872,-5.7637,-0.9904,2.3317,-0.7754,-1.1157,0.2663,0.0922,0.5516,244030,2021-05-14 09:53:06:572
9.1171,-5.6288,-0.5962,8.1162,-5.473,-0.5874,1.9,0.9115,-0.0412,-0.2615,0.2053,-0.3158,244530,2021-05-14 09:53:07:072
6.6798,-4.0606,-2.0638,8.3023,-5.1344,-0.9379,1.6856,2.2841,0.6792,0.3317,-0.4661,-0.2169,245030,2021-05-14 09:53:07:572
11.303,-4.1946,-0.7781,8.9929,-3.8741,-0.5385,5.82,2.1407,-3.4048,0.1191,1.1148,-1.7666,245530,2021-05-14 09:53:08:072
8.0589,0.8547,-2.399,9.3542,-2.9201,-0.3782,4.8426,6.1842,-2.4512,0.0232,0.4044,-1.3335,246030,2021-05-14 09:53:08:572
13.6326,4.4724,-0.6895,9.2263,-3.0152,-1.3978,1.438,-7.1539,2.4701,-0.7825,-0.0831,-0.0825,246530,2021-05-14 09:53:09:072
18.0116,-5.9328,-3.7685,9.4805,-1.6115,-1.9218,6.2397,-0.9937,1.8927,0.5492,0.2779,-0.6493,247030,2021-05-14 09:53:09:572
11.078,-2.2841,-0.3879,8.994,-3.6531,-1.3903,-0.7101,1.7406,1.2135,0.1436,-0.0586,0.1845,247530,2021-05-14 09:53:10:072
9.7205,-5.1715,-0.431,8.2541,-5.2368,-0.7853,1.5148,0.1382,0.3717,-0.0874,-0.0458,0.4142,248031,2021-05-14 09:53:10:573
8.0924,-3.9672,-1.3264,8.3575,-5.0164,-1.0764,-1.4331,1.0077,0.6993,0.1594,-0.0507,-0.0935,248530,2021-05-14 09:53:11:072
8.4348,-5.3343,-0.9218,8.2723,-5.2428,-0.5032,-1.0047,0.6514,-0.7517,0.0867,-0.066,-0.1057,249031,2021-05-14 09:53:11:573
8.5018,-4.9728,-1.7861,8.7381,-4.4491,-0.1479,-0.849,1.4666,-1.2081,-0.2834,0.4307,0.1289,249530,2021-05-14 09:53:12:072
5.6503,-3.9576,-1.3455,8.9305,-3.9236,-1.011,-3.2331,0.071,-0.3326,0.3409,-0.1692,-0.0024,250030,2021-05-14 09:53:12:572
9.651,-3.304,-1.549,9.0285,-3.8025,-0.4452,1.549,1.1534,-1.6071,-0.3873,0.2413,-0.2431,250529,2021-05-14 09:53:13:071
8.8466,-2.1811,-1.9992,9.5384,-2.0282,-1.0373,-0.6425,0.0968,-1.0301,-0.6188,0.1594,-0.1045,251030,2021-05-14 09:53:13:572
8.9902,-6.5673,-1.834,7.7602,-5.9895,-0.2752,2.9938,-0.5197,-1.0841,-0.3042,0.9273,-0.3891,251530,2021-05-14 09:53:14:072
24.3011,-1.6113,-0.7805,8.0438,-5.5978,-0.3628,1.559,-0.5898,-2.0526,-1.0531,-1.2804,0.5724,252030,2021-05-14 09:53:14:572
-3.3447,0.7638,-0.7111,9.4502,-1.8594,-1.8457,-10.5249,1.5603,0.9391,0.0324,-0.2926,-1.011,252530,2021-05-14 09:53:15:072
14.2383,-6.6966,-1.0175,8.3003,-4.9154,-1.7647,3.8838,-0.4754,0.9864,-0.3714,6.00E-04,-2.5271,253030,2021-05-14 09:53:15:572
12.7635,-6.0334,-0.1173,7.3945,-6.4059,-0.6761,4.9655,0.6239,0.1276,-0.8332,-0.0293,1.6481,253530,2021-05-14 09:53:16:072
-1.7238,-1.0918,-0.0383,9.4249,-1.8504,-1.9795,-7.571,-0.7582,-0.4595,-0.102,0.0916,1.4526,254030,2021-05-14 09:53:16:572
9.8593,-11.4275,-1.8244,7.4653,-6.3373,-0.5274,10.2855,-3.6781,2.5088,0.7001,0.2724,-1.6689,254530,2021-05-14 09:53:17:072
11.3725,-6.9623,0.2538,7.2402,-6.4445,-1.4893,2.4436,-1.0059,1.6022,0.0929,-0.3769,-0.4331,255030,2021-05-14 09:53:17:572
7.6638,-7.9511,-1.166,7.8185,-5.895,-0.5401,1.1787,-2.1379,-0.2874,0.5315,-0.0428,-0.4649,255530,2021-05-14 09:53:18:072
8.7556,-5.8514,-1.0319,7.621,-6.1578,-0.4153,1.7882,-0.052,-0.5612,-0.1179,6.00E-04,0.1704,256029,2021-05-14 09:53:18:571
8.3366,-6.8738,-0.8571,7.7105,-6.0335,-0.5618,-1.046,-0.2254,-0.1449,0.394,-0.1393,-0.0861,256529,2021-05-14 09:53:19:071
6.7971,-5.6647,-1.1803,7.5386,-6.2664,0.2688,-1.2229,-0.3088,-0.7775,0.0202,0.2932,0.0043,257030,2021-05-14 09:53:19:572
6.948,-7.4508,-0.5626,7.3113,-6.5352,-0.0832,0.1246,-0.221,-0.7027,-0.2327,0.0403,-0.0648,257530,2021-05-14 09:53:20:072
6.608,-7.3646,-0.9098,7.1664,-6.6941,-0.038,-0.3494,-1.1456,-0.8782,0.1014,0.1301,-0.0122,258030,2021-05-14 09:53:20:572
6.0214,-5.5833,0.4477,6.9621,-6.8987,-0.3273,-0.9407,1.3155,0.775,-0.0476,0.0715,0.0599,258530,2021-05-14 09:53:21:072
6.4452,-6.3686,0.2298,6.8526,-6.9973,-0.5001,-0.0544,0.3278,0.1572,0.0599,0.2908,0.2101,259030,2021-05-14 09:53:21:572
8.2911,-7.5824,-1.0343,6.8041,-7.0266,-0.7088,0.7165,-0.5058,-0.0365,-0.5156,0.0696,0.1808,259530,2021-05-14 09:53:22:072
1.0391,0.3807,1.0151,9.4905,-1.6069,-1.876,-8.4514,1.9876,2.8911,-0.8143,-0.5473,-1.8937,260030,2021-05-14 09:53:22:572
10.0748,-5.9687,-0.6201,7.8572,-5.6417,-1.6142,1.0851,-0.9088,0.6373,-0.2724,-0.6292,0.2572,260530,2021-05-14 09:53:23:072
8.6095,-1.0175,-0.9385,9.3083,-2.4191,-1.9169,-6.1767,2.4526,1.9097,-0.0929,0.7471,2.0049,261030,2021-05-14 09:53:23:572
12.3876,-6.596,-0.4453,8.5839,-4.0541,-2.4598,4.0398,-2.0384,1.9449,-0.5272,-0.3879,-2.0433,261530,2021-05-14 09:53:24:072
8.1714,-6.0525,-1.5299,7.5521,-6.2261,-0.6097,4.4122,-1.9029,-0.3122,-0.1826,0.1906,1.7758,262030,2021-05-14 09:53:24:572
5.0757,-2.6193,-1.8196,9.3328,-2.9342,-0.678,-3.9363,-0.705,-1.4313,0.2969,1.0635,1.9853,262530,2021-05-14 09:53:25:072
0.3567,-1.1564,-1.2163,9.2522,-3.0983,-0.9838,-3.1766,-2.1157,1.6652,-0.2443,0.055,-2.9486,263030,2021-05-14 09:53:25:572
19.6061,-7.8745,-4.4101,8.0956,-5.333,-1.4802,7.1794,-1.9981,0.9727,-0.7703,-0.3659,-3.0739,263530,2021-05-14 09:53:26:072
11.7651,-6.7133,-0.0503,6.5312,-7.2555,-0.9342,5.081,0.4003,0.893,-0.584,0.1723,0.328,264030,2021-05-14 09:53:26:572
6.4141,-6.7397,-0.8452,7.1701,-6.6861,0.2353,7.8575,-4.2883,-1.6012,-0.5278,0.1998,0.4362,264530,2021-05-14 09:53:27:072
6.6535,-7.2832,-0.3448,7.2588,-6.5463,-0.7916,-0.0693,-0.3951,0.9252,-0.2767,-0.3054,-0.0287,265030,2021-05-14 09:53:27:572
6.7086,-6.9719,-0.4022,7.2177,-6.6381,-0.1013,-0.5309,-0.3584,-0.2527,0.0593,0.0012,0.146,265530,2021-05-14 09:53:28:072
6.2584,-6.5146,-0.577,7.3301,-6.4736,-0.7299,-0.1953,0.8594,0.4507,-0.0617,-0.0464,-0.2285,266030,2021-05-14 09:53:28:572
5.691,-4.7118,-0.8068,7.5823,-6.1785,-0.7104,-1.8062,1.5789,-0.1833,-0.0079,0.0202,-0.0623,266530,2021-05-14 09:53:29:072
9.1985,-6.3973,-0.4453,7.7534,-6.0045,-0.0369,1.4695,-0.3615,-0.4065,-0.2462,0.1399,-0.0696,267030,2021-05-14 09:53:29:572
6.8283,-4.2832,-0.735,7.9346,-5.7371,-0.5471,-0.7256,-0.915,-0.408,0.0959,-0.201,-0.1179,267530,2021-05-14 09:53:30:072
9.0812,-5.9233,-0.0311,7.946,-5.6947,-0.776,0.8506,-0.2651,-0.186,-0.1545,0.0855,0.1362,268030,2021-05-14 09:53:30:572
11.3629,-7.9224,-0.7542,7.9341,-5.6361,-1.2066,3.7488,-1.2533,1.0172,0.0556,0.1686,0.0269,268530,2021-05-14 09:53:31:072
4.0582,-6.019,-0.6033,7.4067,-6.4147,-0.4035,1.0974,-3.6738,-0.3478,0.0098,0.5119,0.08,269030,2021-05-14 09:53:31:572
7.2353,-5.466,0.7757,7.1512,-6.6345,-1.0068,0.0304,1.0929,1.8899,-0.0574,-0.6151,-0.1045,269530,2021-05-14 09:53:32:072
6.5793,-7.8195,-0.7254,6.7144,-7.1452,-0.1849,-0.1357,-0.6754,-0.5182,-0.0672,0.2321,-0.0324,270030,2021-05-14 09:53:32:572
6.1483,-8.928,-0.3855,6.4936,-7.2497,-1.2025,-0.3901,-1.7344,0.9077,0.0837,-0.5027,-0.1631,270530,2021-05-14 09:53:33:072
5.3558,-7.4603,-0.0431,6.3702,-7.4084,-0.8408,1.6049,-2.0056,1.0323,0.6939,-0.6145,0.0702,271030,2021-05-14 09:53:33:572
2.4445,-7.3023,-0.6249,6.2331,-7.5132,-0.9332,-3.9757,0.0148,0.5633,-0.0079,-0.3592,-0.5229,271531,2021-05-14 09:53:34:073
4.7238,-6.8139,-4.3096,2.6102,-9.1989,-2.1766,2.024,2.3606,-2.1393,0.8173,-0.8668,0.9016,272039,2021-05-14 09:53:34:581
3.0071,-9.0932,-1.5179,1.4016,-9.5597,-1.6785,-0.7609,2.2933,2.1535,0.1295,1.8668,0.2999,272530,2021-05-14 09:53:35:072
1.5443,-6.5673,-9.6558,2.7287,-9.2201,-1.9274,-2.4579,4.982,0.6846,1.0916,-0.5418,0.9621,273030,2021-05-14 09:53:35:572
3.4357,-10.4986,-1.6472,3.0322,-9.2998,-0.6995,1.135,1.312,0.8019,0.4191,0.3054,-0.1753,273530,2021-05-14 09:53:36:072
3.9217,-9.4403,-0.668,2.9036,-9.3657,-0.1519,1.0248,-0.0721,-0.5464,-0.0947,0.1772,0.0379,274030,2021-05-14 09:53:36:572
3.1963,-9.1387,0.2179,2.9818,-9.3321,-0.4379,0.4223,0.419,-0.0938,-0.1765,-0.4197,-0.2242,274530,2021-05-14 09:53:37:072
-4.7549,-11.2647,-2.909,1.6284,-9.3166,-2.5924,-7.1939,-2.1474,-0.2451,0.7373,-2.0049,1.5498,275030,2021-05-14 09:53:37:572
1.5107,-9.9455,-5.7796,0.9943,-9.1354,-3.4244,1.7351,1.3447,-0.7032,0.1051,0.4581,0.3189,275530,2021-05-14 09:53:38:072
8.1451,-9.3039,-8.6359,1.5333,-9.2458,-2.8869,-1.5763,-2.1464,0.5824,-0.785,0.0287,0.0892,276030,2021-05-14 09:53:38:572
-7.5657,-9.7372,3.1819,1.7614,-9.2667,-2.6826,-1.8523,6.9347,5.8286,0.212,-0.5644,-0.7214,276530,2021-05-14 09:53:39:072
7.367,-11.8657,-6.62,1.8652,-9.42,-1.9885,5.9626,-2.4105,-4.4297,-0.3659,-0.4019,0.5828,277030,2021-05-14 09:53:39:572
-0.9433,-5.3271,-1.075,2.3377,-9.313,-1.9933,-6.9154,2.808,3.6477,0.2175,-0.2841,-0.9701,277530,2021-05-14 09:53:40:072
0.3424,-10.7452,-4.9464,1.9915,-9.4735,-1.5675,-2.4302,-0.4359,0.8224,-0.4942,0.336,0.1191,278030,2021-05-14 09:53:40:572
2.7725,-7.1084,1.9154,2.2964,-9.4092,-1.5374,-3.739,0.5855,-1.0215,0.6518,0.0067,0.4478,278530,2021-05-14 09:53:41:072
2.5235,-9.7348,-0.589,3.1167,-9.288,-0.436,-0.5432,-0.4301,-0.156,0.245,-0.3067,-0.0073,279030,2021-05-14 09:53:41:572
2.217,-9.5457,-0.9529,2.6672,-9.3937,-0.903,0.0458,0.194,0.2742,-0.1662,0.0238,0.0806,279530,2021-05-14 09:53:42:072
2.6552,-9.8234,-1.6041,2.6967,-9.3147,-1.4607,0.2505,-0.0203,0.1439,0.0476,0.0935,0.0336,280030,2021-05-14 09:53:42:572
2.2769,-9.2991,-1.6352,2.517,-9.3343,-1.645,-0.2109,0.0536,-0.0514,-0.2095,0.2932,-0.0788,280529,2021-05-14 09:53:43:071
2.4349,-9.0501,-2.988,3.4403,-8.8664,-2.3922,-0.8366,-0.1248,-0.5783,0.0538,-0.226,0.4936,281030,2021-05-14 09:53:43:572
2.5905,-10.2639,-2.6887,1.3973,-9.5325,-1.8301,1.4972,-0.9493,-0.6622,0.4447,0.1368,0.3396,281531,2021-05-14 09:53:44:073
1.3551,-9.5217,-0.2705,1.1214,-9.7136,-0.7471,-0.106,-0.0611,0.3229,0.033,-6.00E-04,0.0293,282030,2021-05-14 09:53:44:572
1.0798,-9.6917,-0.4549,1.0726,-9.7326,-0.5444,0.0018,0.04,0.0941,-0.0611,0.0757,-0.0037,282530,2021-05-14 09:53:45:072
1.719,-9.6295,-3.1795,1.6361,-9.6133,-1.038,0.797,-0.5077,-0.3191,-0.0098,-0.3732,-0.1008,283030,2021-05-14 09:53:45:572
4.3934,-10.3262,-8.3007,1.6631,-9.5197,-1.6674,-0.9769,0.083,1.9543,0.4795,-1.3299,-0.2456,283530,2021-05-14 09:53:46:072
4.8076,-7.331,0.6991,3.1911,-9.2704,-0.2153,-0.093,0.0913,-0.275,-0.1839,0.4759,-0.3494,284030,2021-05-14 09:53:46:572
6.3518,-8.1977,-0.6967,2.5472,-9.4675,0.2221,3.7431,1.253,-0.917,0.2834,-0.7996,0.1093,284530,2021-05-14 09:53:47:072
1.1516,-6.9456,-0.4741,1.5763,-9.6447,0.816,6.2264,-5.8728,-1.1933,0.1185,-0.4581,0.4862,285030,2021-05-14 09:53:47:572
2.7581,-9.4068,0.5315,1.4126,-9.6824,0.6533,1.4363,0.2906,-0.0874,0.0122,-0.0953,0.1863,285530,2021-05-14 09:53:48:072
1.1588,-9.7348,-0.3496,-0.1019,-9.8036,0.223,2.3596,0.8421,0.5072,-0.0403,-0.135,0.383,286030,2021-05-14 09:53:48:572
-0.4525,-9.3182,-0.8547,1.6056,-9.5947,-1.239,-2.1156,-0.1019,-0.1066,-0.7764,0.6976,-0.3488,286530,2021-05-14 09:53:49:072
3.6224,-8.3055,-2.9066,3.9793,-8.4477,-2.9954,1.7162,-0.2971,-1.9717,-0.4948,0.6671,-1.2199,287030,2021-05-14 09:53:49:572
6.5793,0.0503,-0.5004,7.0155,-4.2222,-5.3968,2.5755,4.4292,5.8045,-1.4502,1.1325,0.9139,287530,2021-05-14 09:53:50:072
6.5122,-3.0957,-4.0701,7.1879,-6.353,-2.0358,-0.6757,3.2573,-2.0344,0.6555,0.4814,1.3146,288030,2021-05-14 09:53:50:572
5.8586,-10.1347,-0.3615,4.7807,-8.4594,-1.3241,3.4267,-0.1522,-2.5801,-0.6878,0.0421,-0.8216,288530,2021-05-14 09:53:51:072
1.3408,-2.5019,1.1133,8.1664,-4.9955,-2.1273,-3.3309,1.2948,0.3164,0.7825,1.0812,0.8974,289030,2021-05-14 09:53:51:572
13.9199,-8.0517,3.8188,6.7252,-6.8693,-1.9378,9.5751,-5.5009,3.841,-0.3995,-1.7355,-3.5571,289531,2021-05-14 09:53:52:073
18.0451,-7.5489,-1.8747,2.2652,-9.5409,-0.106,-2.1228,1.9827,-5.4891,-0.6701,2.0342,-2.551,290030,2021-05-14 09:53:52:572
12.9622,-10.4962,-4.7549,0.2336,-9.7848,0.6112,12.7286,-0.7114,-5.3661,-0.5229,1.7336,-2.7049,290530,2021-05-14 09:53:53:072
23.638,-12.5911,2.217,-3.5608,-9.1358,-0.1668,16.7016,-2.1472,-0.6816,-1.3659,2.1203,-2.259,291030,2021-05-14 09:53:53:572
14.1282,-9.2991,-4.1204,5.0874,-8.2957,-1.212,9.0407,-1.0033,-2.9084,-0.5253,0.2266,0.0929,291530,2021-05-14 09:53:54:072
8.7939,-2.7725,-1.0463,8.2781,-4.8093,-2.1245,0.5158,2.0368,1.0782,-0.2566,0.9731,-0.449,292030,2021-05-14 09:53:54:572
9.7636,-2.7054,-2.2793,8.6359,-3.4089,-3.1576,1.1276,0.7035,0.8784,-0.4178,-0.2963,0.1839,292530,2021-05-14 09:53:55:072
9.7181,-2.5474,-2.9616,8.7392,-2.9774,-3.3063,2.7569,-0.401,-0.0384,-0.4472,-0.2388,0.0666,293030,2021-05-14 09:53:55:572
8.6431,-2.8778,-3.158,8.834,-2.4205,-3.5031,0.8805,0.0821,0.3218,0.1588,0.2889,-0.1356,293530,2021-05-14 09:53:56:072
9.5744,-3.4405,-2.7198,8.8344,-2.6751,-3.3117,0.74,-0.7654,0.5919,0.0519,-0.2535,0.1894,294030,2021-05-14 09:53:56:572
9.3541,-2.0087,-2.8419,8.6309,-2.5938,-3.8666,2.3332,-0.7478,1.6035,0.1662,0.5632,-0.4575,294530,2021-05-14 09:53:57:072
13.0245,-4.2282,-2.3846,8.955,-3.488,-1.9523,4.0694,-0.7401,-0.4323,-0.1796,0.1466,-0.0244,295030,2021-05-14 09:53:57:572
8.406,-1.822,-2.3176,9.063,-2.6801,-2.6171,0.3215,-0.7268,0.2977,-0.2291,-0.1014,0.4032,295530,2021-05-14 09:53:58:072
10.4627,-4.1084,-2.2601,9.0985,-2.8488,-2.296,-0.1858,0.4255,0.1653,-0.0831,0.0489,-0.0556,296030,2021-05-14 09:53:58:572
9.8426,-2.8084,-2.5977,9.1512,-2.6076,-2.3722,0.6914,-0.2008,-0.2255,0.0305,0.2615,-0.0996,296530,2021-05-14 09:53:59:072
8.6957,-2.5283,-2.1787,9.0333,-2.4285,-2.9449,0.5395,-0.2637,0.0063,-0.0226,-0.2999,-0.0024,297030,2021-05-14 09:53:59:572
8.8585,-2.1979,-2.2194,9.0798,-2.4789,-2.7536,0.9711,-0.7821,0.0915,0.1234,0.0764,-0.0702,297530,2021-05-14 09:54:00:072
7.7405,-1.1157,-2.806,9.0416,-2.6994,-2.6706,-1.3012,1.5837,-0.1354,0.0189,0.0458,-0.022,298031,2021-05-14 09:54:00:573
10.1275,-3.8331,-2.9233,9.1671,-2.5756,-2.3453,0.9603,-1.2575,-0.578,0.0794,0.036,-0.1093,298530,2021-05-14 09:54:01:072
9.7205,-1.6376,-2.2577,9.0615,-2.5935,-2.7081,0.659,0.9559,0.4503,-0.2071,-0.0159,-0.0061,299029,2021-05-14 09:54:01:571
9.6007,-2.3032,-2.7318,8.9057,-2.4399,-3.3025,1.307,0.7737,0.4835,0.3176,0.1875,-0.1038,299530,2021-05-14 09:54:02:072
9.3685,-2.7246,-2.4876,9.0043,-2.6232,-2.8656,1.754,0.9841,-0.2153,-0.0379,-0.1478,0.022,300031,2021-05-14 09:54:02:573
9.6702,-2.162,-2.8706,9.0434,-2.447,-2.8983,0.6268,0.285,0.0277,0.0886,-0.16,-0.0812,300530,2021-05-14 09:54:03:072
8.0589,-3.7733,-2.6695,9.0937,-2.6673,-2.522,-1.0348,-1.106,-0.1476,0.0727,0.1112,0.0098,301030,2021-05-14 09:54:03:572
8.7029,-2.9042,-2.6336,8.9813,-2.6654,-2.8985,-0.2784,-0.2388,0.2649,0.1326,-0.0922,-0.0043,301530,2021-05-14 09:54:04:072
8.8992,-2.3822,-2.8826,8.9839,-2.6183,-2.9332,-0.0847,0.2361,0.0506,-0.0354,0.0672,0.0348,302029,2021-05-14 09:54:04:571
11.1019,-2.6504,-2.9497,9.0721,-2.6006,-2.6655,-1.3659,0.6664,0.4908,0.0983,-0.1173,-0.0745,302530,2021-05-14 09:54:05:072
9.1171,-2.7557,-2.3367,9.0518,-2.6675,-2.6681,0.0653,-0.0882,0.3314,-0.1124,0.0263,0.0037,303030,2021-05-14 09:54:05:572
8.2361,-2.8036,-2.4445,8.8587,-2.5305,-3.36,-0.624,-0.3196,0.9467,0.0519,-0.2645,-0.1405,303530,2021-05-14 09:54:06:072
8.6119,-2.6145,-2.9329,9.0006,-2.5476,-2.9443,0.8691,-0.998,0.2632,0.0745,0.0147,-0.0574,304030,2021-05-14 09:54:06:572
9.8809,-3.6536,-3.0765,9.1986,-2.6337,-2.1492,-1.5275,4.00E-04,-0.2674,0.2486,0.234,-0.0183,304530,2021-05-14 09:54:07:072
9.9096,-4.2473,-3.2777,9.1378,-3.0242,-1.8775,1.564,-1.2395,-0.9413,-0.2437,-0.0031,0.0721,305030,2021-05-14 09:54:07:572
7.6974,-1.4892,-3.2848,8.9898,-3.0399,-2.4724,-2.423,-0.2689,-0.3382,-0.3537,0.0751,0.1246,305530,2021-05-14 09:54:08:072
10.9535,-3.8307,-3.2465,8.8539,-3.1219,-2.834,4.5207,0.3458,0.018,-0.044,-0.2114,-0.047,306030,2021-05-14 09:54:08:572
6.9863,0.3735,-2.8874,8.5771,-3.659,-3.0356,-5.4029,1.6908,2.1633,-0.0641,0.2621,0.5131,306530,2021-05-14 09:54:09:072
6.948,1.1109,-3.6775,8.9941,-2.4208,-3.0687,0.2882,-0.7204,2.1565,0.6298,0.5437,-0.3671,307030,2021-05-14 09:54:09:572
6.2369,2.4541,-1.8675,8.6782,-3.3137,-3.1431,-3.9448,-0.2153,2.669,-0.4667,-1.077,0.4832,307530,2021-05-14 09:54:10:072
6.8139,-3.8714,-3.6464,8.8727,-2.5838,-3.2818,-2.0328,-1.2689,-0.3096,0.1197,-0.2437,0.0079,308030,2021-05-14 09:54:10:572
4.2952,-4.2928,-1.3623,8.6485,-3.3301,-3.2069,0.5886,0.5456,-0.0777,0.2413,-0.3415,0.0489,308530,2021-05-14 09:54:11:072
7.4915,-1.9728,-2.3631,8.8673,-3.2258,-2.6712,5.5723,-3.0131,0.6729,0.4594,0.1118,-0.3134,309030,2021-05-14 09:54:11:572
6.0478,-3.6895,-2.5091,8.835,-3.4156,-2.5391,-2.6416,-0.0586,0.2264,-0.069,-0.3195,0.1173,309530,2021-05-14 09:54:12:072
6.7684,-2.7557,-2.3727,8.5841,-3.5904,-3.0971,1.206,-0.2767,0.881,0.2541,-0.0519,-0.0678,310029,2021-05-14 09:54:12:571
20.2334,-6.7157,-5.2481,8.9435,-2.8995,-2.7887,11.396,-3.2979,-2.7205,-1.1069,-1.4361,-1.4068,310530,2021-05-14 09:54:13:072
6.3015,-7.0581,-3.8666,3.2314,-8.6035,-3.4218,8.2447,0.3693,-0.8066,0.1826,0.0336,2.1832,311030,2021-05-14 09:54:13:572
7.8003,-10.3573,-4.6304,6.0283,-6.9562,-3.3824,2.2393,-2.9686,-1.3667,-1.6267,1.1026,-3.1466,311532,2021-05-14 09:54:14:074
11.0133,-1.336,-1.9034,9.2908,-1.8787,-2.5144,-3.1765,3.152,0.7568,0.934,-0.0819,1.6096,312030,2021-05-14 09:54:14:572
7.2089,-3.4405,-0.2849,8.527,-4.4797,-1.842,-1.3299,0.9971,1.6036,0.1301,0.2413,-0.1442,312530,2021-05-14 09:54:15:072
5.9735,4.707,4.0486,8.5955,-4.2238,-2.109,-11.7355,3.5859,4.5771,-0.022,0.1998,1.2547,313030,2021-05-14 09:54:15:572
0.5842,-5.6431,-3.7996,4.1659,-8.837,-0.8507,-1.9396,2.2031,-1.9067,-1.4044,0.2816,-0.4496,313531,2021-05-14 09:54:16:073
6.1124,-3.4093,-2.1452,7.2077,-6.1462,-2.5386,-9.692,2.9398,-3.1522,0.3403,-0.2327,0.9749,314030,2021-05-14 09:54:16:572
4.3838,-3.4716,-1.6927,7.5646,-5.8858,-2.0746,-1.5538,-1.38,-1.0784,-0.3946,0.4759,0.496,314530,2021-05-14 09:54:17:072
11.4898,-4.9656,0.1341,7.1279,-6.448,-1.9458,-8.8006,8.8546,5.0716,0.573,2.0989,2.5357,315030,2021-05-14 09:54:17:572
10.9631,-9.9838,-1.1612,7.4645,-5.82,-2.5649,0.7443,-1.7086,2.5089,-0.4215,-0.1197,-3.1136,315530,2021-05-14 09:54:18:072
13.1059,-8.102,-1.8603,7.3666,-5.8857,-2.6947,5.8148,-2.1682,0.9328,-0.0385,-0.2437,0.0617,316030,2021-05-14 09:54:18:572
11.1594,-9.0118,-3.067,7.2881,-6.1148,-2.3796,4.2852,-6.9812,0.2681,-0.2114,-0.1222,-0.3134,316530,2021-05-14 09:54:19:072
7.197,-5.7844,-2.624,7.3506,-5.8279,-2.8593,-1.2383,0.2828,0.6912,0.4386,-0.099,0.1258,317030,2021-05-14 09:54:19:572
6.924,-5.6144,-2.2793,6.9011,-6.2695,-3.0395,-0.1638,-0.6737,1.8495,0.3903,-0.1252,-0.1063,317530,2021-05-14 09:54:20:072
5.7269,-5.5617,-2.7557,7.1722,-6.3473,-2.1077,-1.4421,0.7939,-0.6624,0.3378,-0.0043,-0.1454,318030,2021-05-14 09:54:20:572
5.533,-11.224,-2.7318,7.9263,-5.3463,-2.182,-4.2942,6.336,1.3553,-0.1991,0.7245,-0.4417,318530,2021-05-14 09:54:21:072
16.1393,-2.0638,-1.6927,8.3992,-4.6447,-2.0127,-1.0777,0.5075,1.7062,0.4227,0.3775,0.3274,319030,2021-05-14 09:54:21:572
7.1491,-6.2465,-3.6512,4.2163,-8.7361,-1.4404,3.5629,-3.2101,-2.2466,-1.4441,0.3769,-2.7049,319530,2021-05-14 09:54:22:072
11.6143,-6.2249,-0.3065,0.5342,-9.7807,-0.4712,12.6935,-7.0313,0.9456,-0.9914,1.3897,-0.6176,320030,2021-05-14 09:54:22:572
2.9233,-3.8379,-1.7334,5.0559,-8.1251,-2.1428,-2.2768,4.1502,0.5729,-0.0593,0.3244,-0.5089,320530,2021-05-14 09:54:23:072
3.9576,-6.0597,-0.6967,4.7593,-8.5006,-1.1221,-0.796,1.0054,0.4584,0.0202,-0.5858,0.0922,321030,2021-05-14 09:54:23:572
2.739,-11.1905,-0.3543,2.108,-9.5771,-0.0769,1.4976,-1.678,0.0458,-6.00E-04,0.4667,0.5162,321530,2021-05-14 09:54:24:072
0.1125,-6.7277,-5.0518,2.2031,-9.5449,-0.4593,-1.7827,2.8728,-4.4127,-0.3616,0.2828,0.496,322030,2021-05-14 09:54:24:572
2.0087,-9.0046,-2.8299,2.3606,-9.5143,-0.2768,-1.6193,-1.0111,-0.6588,0.2132,-0.3024,-0.0874,322530,2021-05-14 09:54:25:072
2.7916,-9.2751,-0.3831,2.3095,-9.5206,-0.4405,1.8342,-0.6159,0.962,-0.0556,0.4142,0.0519,323030,2021-05-14 09:54:25:572
1.4964,-5.9352,0.7781,2.2306,-9.5217,-0.7295,0.7136,-0.1789,0.3519,-0.1356,0.2529,-0.215,323531,2021-05-14 09:54:26:073
2.2314,-5.2074,-3.9863,2.6382,-9.3846,-1.0672,1.188,-0.1229,1.824,-0.2486,-0.1527,-0.1741,324030,2021-05-14 09:54:26:572
3.3375,-10.1634,-0.972,2.5396,-9.4702,-0.1902,-1.0844,1.653,-0.2803,0.0177,0.1197,0.0055,324530,2021-05-14 09:54:27:072
4.9728,-10.3142,4.6759,3.0298,-9.3125,-0.5175,0.9012,-2.8126,-0.2295,-0.3641,-0.2645,0.0709,325029,2021-05-14 09:54:27:571
5.5354,-12.3349,2.1045,3.3597,-9.1542,-1.0413,2.2693,-0.6642,-0.6144,0.16,-0.3653,-0.336,325530,2021-05-14 09:54:28:072
4.4101,-10.0796,-0.6656,2.8785,-9.3562,0.5889,1.5008,-0.7339,-1.2687,0.5675,0.2657,0.4844,326030,2021-05-14 09:54:28:572
2.3439,-10.9702,0.1748,3.4565,-9.1455,-0.7629,3.3968,0.4677,1.4813,-0.0116,-0.4966,-0.6903,326530,2021-05-14 09:54:29:072
3.0119,-7.6998,-0.6919,4.7476,-8.5429,-0.8063,2.0817,1.0158,0.5745,0.0641,-0.2156,0.0684,327030,2021-05-14 09:54:29:572
6.3758,-13.544,-3.5434,6.5548,-7.2378,-0.9052,-7.3952,4.8196,-5.5591,-0.4514,0.3183,-1.0574,327530,2021-05-14 09:54:30:072
3.0885,-3.2872,1.9704,7.5627,-6.1926,-0.7921,-0.0517,-3.9491,-1.7131,0.5321,0.2749,-0.0782,328031,2021-05-14 09:54:30:573
2.1332,-3.8882,0.4429,6.5423,-7.2977,-0.3357,-4.2827,3.515,0.8887,-0.212,0.1167,0.4472,328530,2021-05-14 09:54:31:072
1.5538,-3.7134,-0.4669,6.4426,-7.3476,-0.8223,-3.6628,2.3733,0.5893,-0.2138,-0.3977,-0.3103,329029,2021-05-14 09:54:31:571
6.7445,-7.9559,-2.1883,6.8475,-6.8704,-1.4419,1.2,-2.0382,0.0625,0.1649,-0.2022,-0.3067,329530,2021-05-14 09:54:32:072
6.7109,-7.4029,0.0575,6.8286,-7.004,-0.6964,1.5852,-2.1853,0.7767,0.0531,0.1949,-0.0312,330030,2021-05-14 09:54:32:572
5.272,-6.4021,-0.7374,6.5964,-7.2301,-0.6189,2.7345,-2.2267,-0.1261,-0.0666,0.0782,-0.1918,330530,2021-05-14 09:54:33:072
9.232,-9.4523,-1.3288,6.497,-7.3211,-0.6007,-1.8169,0.1816,0.3177,-0.0171,-0.0745,-0.0263,331030,2021-05-14 09:54:33:572
5.272,-6.6822,0.0239,6.1591,-7.6225,-0.366,2.4744,-1.5904,-2.4089,-0.1405,0.3256,0.1674,331530,2021-05-14 09:54:34:072
2.4804,-5.9065,-1.5874,5.7413,-7.9475,-0.2117,-3.4722,1.8808,-1.2811,0.2975,0.6542,0.248,332030,2021-05-14 09:54:34:572
7.2401,-7.8482,-1.5921,5.6319,-8.0153,-0.4541,-1.3453,-0.4722,0.2662,-0.0666,0.1057,-0.2773,332530,2021-05-14 09:54:35:072
5.9831,-7.0844,-0.8691,5.8398,-7.8781,-0.0463,-1.5978,1.649,0.1572,0.0379,0.5553,-0.1943,333030,2021-05-14 09:54:35:572
8.5186,-9.074,-0.1628,5.7586,-7.9375,-0.0679,2.6433,-1.2235,-0.0189,-0.4966,0.3855,-0.3855,333529,2021-05-14 09:54:36:071
4.4556,-6.2465,0.917,5.7613,-7.9032,-0.7191,-1.257,1.6819,1.7406,-0.3836,0.7361,-0.1692,334030,2021-05-14 09:54:36:572
10.7931,-9.165,-1.7023,6.0501,-7.6993,-0.5365,4.723,-1.4793,-1.1969,-0.1491,0.584,-0.0574,334530,2021-05-14 09:54:37:072
6.8091,-17.1952,-1.4078,5.4749,-7.7058,-2.6109,-0.089,-7.662,-1.8539,-0.537,-1.248,1.8851,335030,2021-05-14 09:54:37:572
7.0964,-10.2807,-2.5283,2.6665,-9.2699,-1.7691,-1.2065,0.0501,0.9931,-0.1539,-0.1142,-0.3427,335529,2021-05-14 09:54:38:071
4.4077,-8.2552,-1.6879,4.4346,-8.6388,-1.3696,0.7496,0.2563,0.6368,0.0764,-0.2547,0.0031,336030,2021-05-14 09:54:38:572
3.9145,-8.9184,-0.7374,4.2726,-8.7723,-0.9805,-0.3581,-0.1461,0.2431,0.0134,0.1381,0.0556,336529,2021-05-14 09:54:39:071
4.1492,-8.8992,-0.3519,4.2429,-8.8145,-0.6875,0.1026,0.0446,0.0698,-0.0318,0.0574,0.0348,337030,2021-05-14 09:54:39:572
3.0143,-8.3103,0.0742,4.4188,-8.7226,-0.7487,-0.7034,-0.1599,0.0479,-0.2364,0.1735,-0.2486,337530,2021-05-14 09:54:40:072
3.8882,-9.1482,-0.3998,3.9013,-8.9558,-0.8621,-0.1421,-0.2506,0.4715,0.0336,-0.237,0.6732,338030,2021-05-14 09:54:40:572
3.3591,-11.0349,-1.482,1.3084,-9.6319,-1.2978,1.5689,0.4289,-0.0469,-0.0825,-0.6078,0.4453,338530,2021-05-14 09:54:41:072
6.6224,-9.5505,-1.5802,8.4926,-3.9455,-2.912,-1.6227,-5.5369,-0.2192,-0.2456,0.3421,-3.5332,339030,2021-05-14 09:54:41:572
12.2056,0.7518,0.1484,9.3077,-2.646,-1.5924,-2.5034,-2.8368,2.6746,1.4526,-0.1503,0.504,339530,2021-05-14 09:54:42:072
7.8745,-9.7851,-1.4102,3.5172,-9.1021,-0.9756,4.512,2.9551,1.8346,-0.65,-0.427,0.8247,340030,2021-05-14 09:54:42:572
-1.3096,-2.3846,0.0718,7.5282,-5.8232,-2.3639,-9.027,2.9938,2.8438,1.0501,-0.6756,-0.6842,340529,2021-05-14 09:54:43:071
7.4651,-7.5178,-1.1827,2.9632,-9.3325,-0.5422,-0.6049,2.4683,-4.8136,-1,-0.4276,-1.6567,341030,2021-05-14 09:54:43:572
6.9623,-18.3899,-2.9281,1.9827,-9.5516,1.0028,3.1101,-9.8568,-5.3535,0.2004,-0.631,3.2858,341530,2021-05-14 09:54:44:072
1.5395,-7.1036,-0.68,4.7055,-8.5938,-0.4189,-17.0152,3.4967,-1.5951,1.6237,1.8357,1.7019,342030,2021-05-14 09:54:44:572
-6.9049,6.3422,-3.8858,3.0921,-9.2319,-1.175,-11.683,-6.1359,9.225,1.0525,0.7123,1.2785,342530,2021-05-14 09:54:45:072
-5.9017,-9.0046,-2.6049,3.5979,-9.0583,-1.0829,-0.1433,5.1046,11.8816,1.766,1.3195,1.1674,343030,2021-05-14 09:54:45:572
-11.0923,-1.2091,2.3894,-2.9334,-9.3553,-0.2088,2.3588,0.3699,2.0739,1.2865,1.0653,1.3977,343530,2021-05-14 09:54:46:072
4.3981,-5.9113,-0.3903,-0.8123,-9.7305,-0.9101,5.4352,11.0719,-0.2518,0.4172,0.0812,1.292,344030,2021-05-14 09:54:46:572
6.4596,-9.0309,-3.4548,2.975,-9.1924,-1.6792,0.7185,2.4276,-0.9515,-0.0971,0.1497,0.2896,344529,2021-05-14 09:54:47:071
6.28,-7.9128,-2.3918,4.9625,-8.2168,-2.0071,0.7309,-2.5021,-0.3871,0.0153,-0.1087,-0.0293,345030,2021-05-14 09:54:47:572
2.3152,-4.7262,-2.624,4.3803,-8.6636,-1.388,2.5876,-2.4179,0.7818,-0.0935,0.3855,-0.0819,345529,2021-05-14 09:54:48:071
10.6111,-8.9591,-2.5163,6.845,-6.9187,-1.2036,3.8159,-1.9814,-1.3729,0.248,-0.2431,-0.0556,346030,2021-05-14 09:54:48:572
12.536,-8.8657,-0.5986,7.5234,-5.9654,-1.996,0.1794,-2.0068,2.713,-0.7721,0.0153,-2.1893,346530,2021-05-14 09:54:49:072
21.3587,-4.0127,2.6097,6.2562,-7.3153,-1.8753,15.1025,3.3026,4.485,-0.0409,-1.4258,-1.2065,347030,2021-05-14 09:54:49:572
5.5378,-8.5736,0.5578,5.4955,-7.8409,-2.119,0.0423,-0.7327,2.6768,-0.6561,-1.1411,-4.8173,347530,2021-05-14 09:54:50:072
10.4603,-11.1881,0.395,4.4545,-8.6625,-1.1356,6.0058,-2.5256,1.5306,-0.2651,-2.3659,-3.9462,348030,2021-05-14 09:54:50:572
1.3431,-6.4308,-0.486,5.9451,-7.7211,-1.1005,7.3456,1.4458,0.8911,-0.3299,-0.6048,-4.0708,348530,2021-05-14 09:54:51:072
10.0221,-11.5065,1.4174,5.8884,-7.7406,-1.2574,10.5539,-1.2594,3.4875,0.358,-0.0855,-2.9505,349030,2021-05-14 09:54:51:572
-0.9816,-5.2816,1.1684,6.7197,-6.888,-1.8899,-20.1823,12.5886,1.9641,0.1252,0.4551,-3.6603,349531,2021-05-14 09:54:52:073
4.3981,-6.5553,5.9687,6.7355,-7.0714,-0.894,-1.0088,1.5453,7.1154,0.1833,-0.0183,-0.9096,350030,2021-05-14 09:54:52:572
4.4317,-7.6016,-6.2034,5.5649,-7.8691,-1.811,1.3323,-1.4638,4.2782,0.3512,-1.1032,-4.2797,350529,2021-05-14 09:54:53:071
11.7053,-6.9001,1.6783,4.5067,-8.7038,0.3239,2.1296,6.2005,0.808,-0.1014,0.3586,-0.7129,351030,2021-05-14 09:54:53:572
6.778,-7.4555,-1.3024,5.8315,-7.8061,-1.109,1.4615,1.2564,-0.9023,-0.3635,-0.2266,-0.0898,351530,2021-05-14 09:54:54:072
9.4284,-9.1363,-2.5355,6.9003,-6.9184,-0.8312,-0.5517,-0.7051,-1.1083,0.2309,0.3109,-0.328,352030,2021-05-14 09:54:54:572
8.2648,-5.9113,-1.5323,7.035,-6.8116,-0.5305,1.2298,0.9003,-1.0018,-0.2828,-0.1368,-0.0599,352530,2021-05-14 09:54:55:072
5.4588,-6.201,-0.6871,7.2015,-6.6265,-0.6312,0.9661,-1.1088,-0.4018,0.1179,0.0696,0.124,353030,2021-05-14 09:54:55:572
6.8474,-6.6104,-1.3336,7.0906,-6.7,-1.0017,0.0589,-1.083,0.036,-0.2694,-0.2034,0.0043,353530,2021-05-14 09:54:56:072
7.4029,-7.8889,-0.0215,6.9081,-6.7997,-1.4874,0.4948,-1.0892,1.4659,0.1423,-0.3183,-0.1362,354030,2021-05-14 09:54:56:572
9.0166,-10.5919,-2.1356,6.5869,-7.1991,-0.9778,-3.1543,-0.0733,-0.5242,0.044,0.3641,-0.3781,354530,2021-05-14 09:54:57:072
5.8586,-7.1587,0.0527,6.7751,-7.048,-0.7705,0.0868,0.1125,0.2714,0.0043,-0.1839,0.1515,355029,2021-05-14 09:54:57:571
8.9735,-7.4699,-0.7709,6.8827,-6.9701,-0.4664,-0.3763,0.1823,0.6542,-0.0959,-0.1387,0.1203,355530,2021-05-14 09:54:58:072
7.9703,-5.6767,-0.4908,6.9446,-6.9208,-0.2159,1.0257,1.2441,-0.2749,0.1466,0.204,0.0733,356030,2021-05-14 09:54:58:572
6.754,-6.9121,-0.3783,6.9825,-6.864,-0.5481,1.6477,-1.6344,-0.1813,-0.0434,0.0935,0.0079,356530,2021-05-14 09:54:59:072
7.0006,-6.0956,-0.4477,6.762,-7.0463,-0.8914,0.99,-0.1655,-0.3631,0.1045,0.1979,0.1191,357030,2021-05-14 09:54:59:572
3.292,-5.3941,-0.5148,6.9245,-6.924,-0.5286,-0.2664,-1.3786,0.0808,0.0134,0.2193,-0.1741,357530,2021-05-14 09:55:00:072
6.2177,-5.7341,-0.6033,7.0269,-6.833,-0.3219,-0.8092,1.0988,-0.2814,-0.1246,0.0177,0.0354,358030,2021-05-14 09:55:00:572
8.3701,-7.331,-0.51,7.1042,-6.7404,-0.5173,-0.6567,0.2442,-0.2951,-0.0599,0.0147,-0.0263,358530,2021-05-14 09:55:01:072
8.1618,-4.8914,-0.9337,7.9552,-5.6917,-0.6997,-0.4036,1.7266,0.7046,0.1246,-0.0086,-0.2828,359030,2021-05-14 09:55:01:572
7.7812,-4.7836,-0.9936,8.2317,-5.3065,-0.5011,-2.4228,1.4698,-0.2182,-0.171,0.1881,0.2749,359530,2021-05-14 09:55:02:072
7.8841,-5.8921,-0.2993,7.6294,-6.1285,-0.6357,0.354,1.1984,0.1152,0.1136,-0.1307,0.0788,360030,2021-05-14 09:55:02:572
10.0509,-5.7293,-0.0239,6.947,-6.8229,-1.1653,3.1039,1.0936,1.1413,-0.2737,-0.7862,0.7147,360530,2021-05-14 09:55:03:072
8.4946,-9.2608,-2.3966,7.881,-5.8358,-0.0534,9.7844,-3.5927,-1.9089,-1.0153,-0.2193,2.2229,361030,2021-05-14 09:55:03:572
3.6655,-5.2816,-0.2634,8.5381,-4.7887,-0.5822,-6.4863,-0.4381,0.0083,0.5418,1.1533,2.1295,361530,2021-05-14 09:55:04:072
-5.2098,-0.7973,-0.8523,9.1742,-3.2113,-1.3006,-14.384,2.414,0.4483,0.3409,1.397,2.2174,362029,2021-05-14 09:55:04:571
-2.1739,2.0542,-1.3455,8.927,-3.6646,-1.7461,-8.1058,-1.1696,0.2167,0.8619,-0.1368,-3.0714,362530,2021-05-14 09:55:05:072
4.1994,-7.7285,1.2282,8.199,-5.2511,-1.1717,-0.8319,-3.8374,-0.581,-0.4355,-0.5571,-2.9926,363030,2021-05-14 09:55:05:572
3.6033,-6.2465,6.7636,6.7848,-6.9163,-1.517,8.3177,-1.974,3.6907,0.2541,-1.8088,-3.3732,363529,2021-05-14 09:55:06:071
9.9862,-11.6741,2.9257,6.5591,-7.1601,-1.372,11.8889,4.8796,-2.4297,-0.7477,-0.7666,-3.0757,364030,2021-05-14 09:55:06:572
13.8122,-9.4236,4.6304,5.5025,-8.1094,-0.3601,13.2417,-1.3764,3.214,0.5431,-1.0971,-4.3268,364530,2021-05-14 09:55:07:072
7.1491,-6.9983,-2.8491,5.3927,-8.1614,-0.693,3.5072,1.596,-2.9688,-0.7031,-0.9322,-1.5626,365030,2021-05-14 09:55:07:572
7.5992,-4.5274,-2.6001,7.8287,-5.7387,-1.3964,-0.388,0.9403,-1.0257,-0.4288,-0.1985,-0.1234,365530,2021-05-14 09:55:08:072
8.1882,-5.217,-0.9194,8.8322,-4.1218,-1.0834,-0.6632,-1.1424,0.1856,0.1955,0.0513,0.1484,366030,2021-05-14 09:55:08:572
10.0461,-4.1204,-2.0279,9.1103,-3.4639,-1.0834,1.0346,-0.3916,-0.9981,0.2896,0.4056,0.1356,366530,2021-05-14 09:55:09:072
9.2344,-3.8499,-0.996,8.943,-3.7056,-1.5689,-0.4651,-0.4268,1.2074,0.2327,-0.204,0.2437,367030,2021-05-14 09:55:09:572
8.5066,-3.9648,-1.6328,8.8297,-4.1103,-1.1453,0.7657,-0.1355,0.6099,0.1014,0.1399,-0.2279,367530,2021-05-14 09:55:10:072
9.5624,-4.4436,-0.6871,8.8867,-4.0231,-1.0062,0.6954,-0.3815,0.3351,0.135,-0.0476,-0.1283,368030,2021-05-14 09:55:10:572
10.0748,-4.118,-0.4693,8.8526,-4.0854,-1.0538,1.1623,-0.5139,-0.2511,-0.3415,-0.2547,-0.0098,368530,2021-05-14 09:55:11:072
8.983,-5.9161,-0.3448,8.7969,-4.1474,-1.2586,-0.3452,0.7966,-1.2623,-0.0354,0.0128,0.5192,369030,2021-05-14 09:55:11:572
10.3693,-4.549,-1.1085,8.7853,-4.1925,-1.1878,1.5449,-0.4176,0.0013,0.2553,0.1368,-0.2706,369530,2021-05-14 09:55:12:072
9.1602,-3.6799,-1.0678,8.9307,-3.8927,-1.1228,0.3029,0.4033,-0.0456,-0.091,-0.1026,-0.1619,370030,2021-05-14 09:55:12:572
8.8394,-3.5003,-1.154,8.8156,-4.0136,-1.5317,0.3862,0.4531,0.1119,0.0776,0.0483,0.0128,370530,2021-05-14 09:55:13:072
7.0509,-4.3646,-0.3208,8.8566,-4.0851,-1.0211,0.6808,-1.2876,1.0438,0.1038,0.2376,-0.2193,371030,2021-05-14 09:55:13:572
7.865,-4.2641,-1.0151,8.914,-3.8892,-1.2588,-0.2897,-0.7042,-0.7415,-0.0452,-0.0654,-0.0348,371530,2021-05-14 09:55:14:072
9.7061,-3.8116,-1.5897,8.9658,-3.739,-1.3433,-0.341,-0.8726,0.5313,-0.0159,0.0574,-0.0275,372030,2021-05-14 09:55:14:572
8.8753,-5.5234,-0.7973,8.9433,-3.7275,-1.5143,-1.2078,0.0136,-0.2798,-0.1894,-0.0971,0.0751,372530,2021-05-14 09:55:15:072
8.521,-5.3558,-0.1413,8.8953,-3.8387,-1.5195,-0.3743,-1.5171,1.3782,0.0153,-0.0489,-0.2156,373030,2021-05-14 09:55:15:572
9.3039,-5.77,-0.4142,8.9455,-3.8173,-1.2556,-0.4605,0.9993,-0.0804,0.1472,-0.0012,-0.0208,373531,2021-05-14 09:55:16:073
5.1667,-2.9185,-1.3647,9.0729,-3.6722,-0.6064,3.4153,-3.4697,-0.2028,-0.1277,0.2816,0.1802,374030,2021-05-14 09:55:16:572
9.7971,-2.8228,-1.0271,8.8641,-4.1027,-0.8753,0.933,1.2799,-0.1519,-0.1368,0.0959,0.044,374530,2021-05-14 09:55:17:072
8.5521,-4.3311,-0.8284,8.729,-4.2933,-1.2421,-0.3636,0.2782,0.0761,-0.2034,0.0342,0.1509,375030,2021-05-14 09:55:17:572
9.8186,-4.5969,-0.7566,8.8882,-3.8294,-1.5829,0.4324,0.6643,-0.0978,-0.069,-0.1387,0.0458,375530,2021-05-14 09:55:18:072
7.1515,-4.3048,-1.4844,8.8174,-4.0766,-1.3436,-1.6659,-0.2281,-0.1408,0.0733,-0.025,-0.1264,376030,2021-05-14 09:55:18:572
12.6031,-5.3534,-0.8068,9.0116,-3.7294,-1.0263,3.5915,-1.624,0.2195,0.0244,0.2712,0.0489,376530,2021-05-14 09:55:19:072
8.655,-4.6855,-0.6608,8.9628,-3.7576,-1.3111,1.1134,-0.2033,0.4384,-0.0409,-0.0104,-0.0403,377030,2021-05-14 09:55:19:572
0.7015,-2.0662,0.0479,9.2664,-3.0007,-1.1401,-9.5979,1.2165,1.8298,0.168,-0.0904,0.7294,377530,2021-05-14 09:55:20:072
4.209,-2.8563,-0.1844,9.3073,-2.8121,-1.2795,-3.7658,0.0315,-0.7957,0.3897,-0.2932,-0.8735,378032,2021-05-14 09:55:20:574
16.4673,-10.1634,0.6823,8.3583,-4.7746,-1.874,6.6568,-4.0488,2.4158,0.0037,-0.4111,-2.9254,378529,2021-05-14 09:55:21:071
10.9391,-6.5194,-0.5507,6.4102,-7.3762,-0.8197,5.5787,1.6071,-1.9426,-0.2028,-0.088,-0.7269,379029,2021-05-14 09:55:21:571
11.4371,-5.8849,1.8579,7.5462,-6.2627,0.0588,5.1476,1.6352,2.1036,-0.5198,-0.6439,2.2816,379530,2021-05-14 09:55:22:072
7.3717,-3.5482,-1.6376,8.8426,-4.189,-0.6561,3.9474,0.9482,-1.581,-0.0183,0.5889,2.5699,380030,2021-05-14 09:55:22:572
4.1803,-6.5841,-1.8244,9.2816,-3.1566,-0.2398,-6.0706,3.9732,0.4108,0.2083,-0.4252,1.2113,380530,2021-05-14 09:55:23:072
4.889,-5.4085,-0.4334,8.6438,-4.184,-1.9874,-3.7548,-1.2245,1.554,-0.4019,-0.617,-2.5137,381030,2021-05-14 09:55:23:572
11.3653,-7.6638,-0.5124,6.3608,-7.4054,-0.933,5.0045,-0.2584,0.4207,-0.0018,0.1185,-0.3335,381530,2021-05-14 09:55:24:072
15.1792,-6.7038,-1.3384,7.0318,-6.8191,-0.4744,8.1475,0.1153,-0.864,-0.7605,1.1057,2.912,382030,2021-05-14 09:55:24:572
1.9872,-5.2026,-4.3239,9.2622,-3.1288,-0.7702,-7.275,-2.0738,-3.5537,-0.3861,0.8241,2.5259,382530,2021-05-14 09:55:25:072
-3.5889,-4.5801,-3.1699,8.984,-3.5632,-1.6619,-6.0105,2.3118,-1.0418,0.6872,0.2792,-3.149,383030,2021-05-14 09:55:25:572
11.7292,-5.442,-0.3496,6.9959,-6.5936,-1.9372,3.436,1.5407,-0.7814,-0.2969,-0.3189,-0.5773,383530,2021-05-14 09:55:26:072
12.9742,-6.9839,-0.5076,6.4133,-7.3677,-0.8698,5.6805,1.7388,-0.2075,-0.3512,0.0134,0.3891,384030,2021-05-14 09:55:26:572
13.3501,-6.11,-1.8842,7.3061,-6.5387,0.1931,11.1259,-3.7268,-1.0335,-0.0702,1.1429,3.1618,384530,2021-05-14 09:55:27:072
3.2705,-4.1515,-1.9154,9.2725,-3.0443,-0.9609,-9.5359,0.9038,-0.9233,0.2608,0.8234,2.1344,385030,2021-05-14 09:55:27:572
5.2672,-4.7884,-2.9401,9.1041,-3.3894,-1.341,-6.0611,-0.415,0.6443,0.0373,-0.1252,-3.3781,385530,2021-05-14 09:55:28:072
15.1002,-10.5584,-1.8292,6.6834,-7.1004,-1.0422,3.8759,2.8106,-1.3026,-0.504,-0.1387,-3.3793,386030,2021-05-14 09:55:28:572
13.2375,-9.4739,0.1221,6.2805,-7.452,-1.0926,1.4379,2.3455,-1.7053,-0.6267,-1.1142,1.3421,386530,2021-05-14 09:55:29:072
16.6636,-3.8116,-2.0231,8.2169,-5.2388,-1.0988,-3.8882,0.211,-1.1207,-0.4221,1.5375,2.1344,387030,2021-05-14 09:55:29:572
1.3838,-2.1715,-2.2482,9.2058,-3.0994,-1.3483,-7.7498,2.038,0.092,0.5675,0.0342,0.4453,387529,2021-05-14 09:55:30:071
6.5386,-2.1332,0.1724,8.0545,-5.4577,-1.2287,-2.3356,1.7577,1.6827,-0.9071,-0.7489,-3.4227,388030,2021-05-14 09:55:30:572
10.58,-6.2896,-1.1444,6.8677,-6.9445,-0.8827,3.9609,0.8976,-0.306,-0.066,-0.3122,-1.4789,388530,2021-05-14 09:55:31:072
12.2942,-7.999,-0.4453,7.1618,-6.6907,0.3366,6.216,-1.0049,-1.6655,-0.733,-0.7691,2.1509,389030,2021-05-14 09:55:31:572
4.0893,-2.3176,-0.9361,8.5737,-4.7418,-0.4221,-1.1636,-1.1767,-1.024,0.237,0.7233,2.7385,389530,2021-05-14 09:55:32:072
6.6032,-5.8778,0.0886,6.7539,-7.0843,-0.6065,0.4766,0.438,-0.4685,0.1943,-0.2144,-0.1332,390030,2021-05-14 09:55:32:572
5.6719,-6.5218,-0.7135,7.205,-6.6523,0.0732,-0.2455,-0.0664,-0.553,-0.2016,0.3012,-0.135,390530,2021-05-14 09:55:33:072
5.7844,-7.0916,0.6009,7.188,-6.6652,-0.2807,-0.7099,-0.6053,0.1469,0.1955,0.3219,6.00E-04,391030,2021-05-14 09:55:33:572
8.7867,-6.5673,0.0215,7.4467,-6.2746,-1.16,0.5236,-0.1873,0.3795,-0.1313,-0.4123,-0.2517,391530,2021-05-14 09:55:34:072
6.9767,-6.1651,-0.7518,7.5026,-6.2277,-1.0471,-0.2937,-0.6359,0.0583,-0.1833,-0.0122,0.099,392030,2021-05-14 09:55:34:572
7.7237,-7.1443,-0.6225,7.0319,-6.7568,-1.0334,-0.0029,0.8155,0.7863,-0.0354,-0.0965,0.5718,392530,2021-05-14 09:55:35:072
6.3135,-6.505,-1.0247,7.2916,-6.532,-0.5799,-0.3753,1.5181,0.11,-0.2676,0.0183,-0.1173,393030,2021-05-14 09:55:35:572
6.8187,-6.0573,-0.4836,7.4693,-6.3281,-0.579,0.3319,-0.1618,-0.5169,0.0275,0.0165,0.0195,393530,2021-05-14 09:55:36:072
7.8793,-7.039,-0.328,7.4035,-6.422,-0.3419,-0.2751,-0.5549,-0.2272,0.1002,0.0562,0.0171,394030,2021-05-14 09:55:36:572
7.0006,-6.7277,-0.2274,7.3652,-6.4608,-0.4266,0.5043,-0.1391,-0.2237,-0.1429,-0.014,-0.0623,394530,2021-05-14 09:55:37:072
9.0477,-7.7405,-0.8571,7.4367,-6.3833,-0.3472,0.3871,-0.4408,-0.5488,-0.0238,0.201,0.0782,395030,2021-05-14 09:55:37:572
8.7484,-6.5457,-0.5171,7.5598,-6.2213,-0.5616,-0.2248,-0.6402,0.4387,-0.0305,0.1203,-0.0568,395530,2021-05-14 09:55:38:072
6.9528,-6.371,-0.7805,7.5465,-6.2369,-0.5668,0.3411,-0.367,0.0408,-0.1894,0.0336,0.0079,396030,2021-05-14 09:55:38:572
7.4819,-6.6248,-1.6568,7.3736,-6.4317,-0.6589,-1.3524,-0.1611,-0.1408,-0.2773,0.1289,0.1069,396530,2021-05-14 09:55:39:072
3.5219,-3.395,-0.6632,9.3915,-2.1307,-1.8519,-5.8697,-1.2643,1.1887,0.2401,-0.1136,0.0055,397030,2021-05-14 09:55:39:572
11.4132,-7.5154,0.3903,7.7273,-5.7866,-1.7247,3.6858,-1.7288,2.1149,-0.1002,-0.5681,-1.9865,397530,2021-05-14 09:55:40:072
12.2487,-7.5274,-0.9313,6.9923,-6.8381,-0.7197,8.8991,-2.6157,-0.4994,-0.179,-0.2847,-0.1155,398029,2021-05-14 09:55:40:571
6.936,-4.0462,-2.0662,8.9405,-4.0277,0.1225,5.6862,-2.3197,-2.5114,-0.237,1.2846,2.9425,398530,2021-05-14 09:55:41:072
0.3903,-1.7214,-1.5395,9.5153,-2.0094,-1.2619,-9.125,0.288,-0.2776,0.2419,-0.3085,-2.6597,399030,2021-05-14 09:55:41:572
13.6374,-9.5385,-0.0958,8.1457,-5.2886,-1.3597,6.3107,-4.1398,0.2764,-0.0098,-0.504,-3.4697,399530,2021-05-14 09:55:42:072
13.7547,-5.442,-0.2777,6.962,-6.7704,-1.3645,5.5923,1.4651,0.2403,-0.5925,-0.0415,-0.1057,400030,2021-05-14 09:55:42:572
18.0379,-8.9543,-1.6688,7.3928,-6.4415,-0.154,10.1097,-2.4191,-1.5545,0.1289,1.1863,3.0635,400530,2021-05-14 09:55:43:072
9.481,-7.9583,-2.8611,9.4376,-2.4892,-0.9519,-11.5277,0.8372,0.7556,0.2731,1.3384,3.2376,401030,2021-05-14 09:55:43:572
-5.4708,-1.6089,-0.3352,9.3123,-2.5872,-1.6608,-6.2836,0.5593,1.8451,0.1326,-0.5431,-2.7776,401530,2021-05-14 09:55:44:072
4.786,-4.9344,-1.0319,8.151,-5.2942,-1.3048,4.7394,-3.6768,1.2162,0.3677,-0.1191,-3.204,402030,2021-05-14 09:55:44:572
17.5782,-6.1411,-1.2641,7.1138,-6.7189,-0.6488,2.6966,-0.9565,-2.3809,-0.2676,0.281,-1.6707,402530,2021-05-14 09:55:45:072
11.4227,-6.4356,-0.6416,6.3583,-7.433,-0.7023,5.1825,1.0614,0.3702,-0.7275,-0.5046,1.3861,403030,2021-05-14 09:55:45:572
14.5974,-9.481,-2.7031,6.7532,-7.1106,0.0644,4.41,-1.2255,-1.8594,-0.5589,-0.9743,1.9358,403530,2021-05-14 09:55:46:072
9.7229,-6.8235,-1.9034,8.5731,-4.7266,-0.5755,1.6178,-1.3182,-1.4901,-0.0886,1.2663,2.8289,404030,2021-05-14 09:55:46:572
3.8906,-4.6064,-1.7717,9.3136,-2.6768,-1.5042,-5.3524,-1.5616,-0.5608,0.1295,-0.2932,0.0257,404530,2021-05-14 09:55:47:072
9.9814,-5.5641,0.1389,7.0944,-6.7551,-0.456,5.0745,-0.2793,-0.806,-0.11,-0.3738,-0.347,405030,2021-05-14 09:55:47:572
6.2297,-4.9871,0.0359,7.1778,-6.6538,-0.6141,-1.1276,0.0482,1.385,-0.0941,-0.2321,0.3152,405530,2021-05-14 09:55:48:072
7.7428,-6.4284,-0.1987,7.2298,-6.5704,-0.855,0.2285,0.0525,-0.0477,0.0079,0.0061,-0.0165,406030,2021-05-14 09:55:48:572
9.3685,-7.1419,-0.9194,7.3819,-6.4153,-0.7226,0.2059,-0.1667,0.493,0.0886,-0.0556,-0.0373,406530,2021-05-14 09:55:49:072
7.7069,-6.1842,-0.7781,7.2909,-6.5316,-0.5927,-0.9764,0.7305,-0.863,-0.0458,0.025,0.0012,407030,2021-05-14 09:55:49:572
9.1267,-7.4412,-0.9673,7.1852,-6.6515,-0.5483,-0.5279,0.9572,-0.837,-0.1203,-0.0458,-0.0189,407530,2021-05-14 09:55:50:072
5.1188,-5.8347,-1.0606,7.1685,-6.6919,-0.0364,-0.7506,0.8317,1.0054,0.245,0.0837,-0.0147,408030,2021-05-14 09:55:50:572
5.8012,-6.0023,-0.3496,7.0921,-6.7609,-0.404,0.7118,-0.234,-0.1557,-0.1692,-0.0269,0.0098,408530,2021-05-14 09:55:51:072
7.5705,-6.766,-0.7566,7.1469,-6.6821,-0.6648,0.6081,0.5898,-0.4802,-0.1796,-0.044,-0.0018,409029,2021-05-14 09:55:51:571
7.6375,-6.7086,-0.814,7.266,-6.5858,-0.0583,1.6738,-0.7861,-1.6432,-0.011,0.0941,0.0495,409530,2021-05-14 09:55:52:072
6.9408,-6.9671,-0.0455,7.2053,-6.583,-0.9587,-0.255,-0.3757,0.9259,0.1448,-0.1191,0.0929,410030,2021-05-14 09:55:52:572
6.8091,-6.79,-0.3041,7.0462,-6.8023,-0.4999,0.3663,-0.8256,-0.35,-0.0867,0.2645,0.0519,410530,2021-05-14 09:55:53:072
5.861,-5.9759,-0.1604,7.333,-6.4723,-0.7117,-0.4254,0.1901,0.4354,0.0684,-0.2376,-0.0012,411031,2021-05-14 09:55:53:573
7.5058,-6.8714,-0.5842,7.3456,-6.4733,-0.5558,-0.6528,0.6727,0.2286,-0.0147,-0.0904,-0.0483,411530,2021-05-14 09:55:54:072
7.2856,-5.8466,-0.5315,7.3896,-6.4108,-0.6832,1.2253,0.6908,-0.4123,0.077,-0.0031,-0.0861,412030,2021-05-14 09:55:54:572
8.8657,-5.5043,0.2969,6.637,-7.062,-1.4993,0.6983,1.102,1.0154,-0.4001,-0.3971,-0.0764,412529,2021-05-14 09:55:55:071
4.877,-6.3494,-0.158,7.2574,-6.5947,-0.1033,-2.3898,0.2141,0.3745,0.6493,0.2755,-0.1185,413030,2021-05-14 09:55:55:572
7.513,-6.0885,-0.328,7.1718,-6.6861,-0.1771,0.323,0.5757,-0.0781,-0.1026,0.1228,-0.0562,413530,2021-05-14 09:55:56:072
7.1802,-7.2305,-0.3998,7.2481,-6.5915,-0.4333,-0.1483,-0.7252,-0.0192,-0.1173,0.1301,0.0941,414030,2021-05-14 09:55:56:572
9.0166,-6.3063,-1.3384,7.5206,-6.2744,-0.4927,1.4443,-0.0973,-0.8103,-0.1014,0.1063,-0.1558,414529,2021-05-14 09:55:57:071
9.3063,-5.782,-0.9649,8.2511,-5.0147,-1.7154,2.7862,-1.0067,0.8391,-0.1087,-0.3738,-0.8143,415030,2021-05-14 09:55:57:572
8.2863,-2.6121,-1.1205,8.5426,-3.3389,-3.4706,-0.2563,0.7268,2.3502,-0.3696,-0.3213,1.7721,415530,2021-05-14 09:55:58:072
7.0749,-10.2089,-0.6776,2.6777,-8.8842,-3.1735,4.3972,-1.3246,2.4959,0.0354,0.609,0.2065,416030,2021-05-14 09:55:58:572
3.9552,-8.2648,-2.9544,6.1226,-6.9139,-3.2988,-2.1674,-1.3509,0.3444,-0.2718,-0.0983,-1.5015,416529,2021-05-14 09:55:59:071
4.6543,-7.8889,-2.794,5.2044,-7.506,-3.5699,0.2738,-0.5953,0.5945,0.4985,-0.2932,1.7947,417030,2021-05-14 09:55:59:572
6.9671,-9.244,-4.4077,6.2935,-6.8221,-3.1656,0.1107,-1.9889,-1.5048,-0.617,0.4881,-1.8699,417530,2021-05-14 09:56:00:072
5.2792,-0.395,-2.8683,9.182,-1.5542,-3.0733,5.8529,-0.5156,-2.5265,0.1258,1.1087,1.0745,418030,2021-05-14 09:56:00:572
11.2097,-7.1443,-0.7566,7.5637,-6.1097,-1.2775,2.2923,3.5615,0.3098,0.0043,0.0287,-0.7013,418530,2021-05-14 09:56:01:072
-0.7757,-2.8012,-2.7629,9.3067,-2.9786,-0.8267,3.1511,-2.2327,-2.3508,-0.0971,0.9212,3.3084,419030,2021-05-14 09:56:01:572
7.5298,-1.0295,0.7566,9.2498,-2.6306,-1.9216,-1.72,1.6011,2.6781,-0.3897,-0.3219,-2.0403,419529,2021-05-14 09:56:02:071
11.1115,-5.691,-1.1253,7.1057,-6.7586,-0.0071,4.0058,1.0676,-1.1182,-0.4239,-0.0654,-2.5284,420030,2021-05-14 09:56:02:572
12.4044,-8.6574,2.4972,9.105,-3.6358,-0.2271,3.5403,4.9643,-1.9093,0.8894,0.6212,2.0201,420530,2021-05-14 09:56:03:072
9.1171,-5.5881,-1.8172,8.7737,-4.1781,-1.3176,-0.2574,-0.1185,0.6754,-0.675,0.7617,-2.2565,421030,2021-05-14 09:56:03:572
8.6694,-6.9168,-2.2865,3.953,-8.9433,-0.7499,6.9478,5.9577,1.0779,-0.7923,-0.3384,0.361,421531,2021-05-14 09:56:04:073
3.201,-7.1946,-1.7023,3.9169,-8.9902,-0.0634,-1.7105,1.2935,-1.6948,-0.3806,1.8625,3.4489,422029,2021-05-14 09:56:04:571
-4.877,-2.1859,-4.0414,6.6267,-7.157,-1.0178,-10.6229,5.7584,-3.834,0.6903,-0.5058,-2.1374,422529,2021-05-14 09:56:05:071
18.6939,-13.5967,1.5658,4.1157,-8.8387,-1.0533,15.4971,-4.4011,2.7459,-0.6542,-1.419,-3.8277,423030,2021-05-14 09:56:05:572
6.0358,-5.952,-1.1492,5.5895,-7.9284,-1.4386,2.6083,0.662,-0.1608,-0.2169,0.066,0.1845,423530,2021-05-14 09:56:06:072
6.1842,-9.6462,-1.901,5.4707,-8.0491,-1.2062,0.6856,-1.6124,-0.7209,0.047,0.0733,0.1515,424030,2021-05-14 09:56:06:572
5.2098,-9.177,0.261,2.7571,-9.3878,-0.6623,1.5629,3.9836,0.2524,-0.1191,0.9029,1.2248,424530,2021-05-14 09:56:07:072
0.7135,-9.1195,-9.2368,2.1175,-9.5508,-0.6848,-1.4768,0.4183,-8.602,-0.259,0.2944,0.1845,425029,2021-05-14 09:56:07:571
2.2434,-7.6854,-1.0534,1.4819,-9.6457,-0.9667,0.872,1.9331,-0.362,0.2279,-0.3244,0.1704,425530,2021-05-14 09:56:08:072
