ACCELEROMETER X (m/s²),ACCELEROMETER Y (m/s²),ACCELEROMETER Z (m/s²),GRAVITY X (m/s²),GRAVITY Y (m/s²),GRAVITY Z (m/s²),LINEAR ACCELERATION X (m/s²),LINEAR ACCELERATION Y (m/s²),LINEAR ACCELERATION Z (m/s²),GYROSCOPE X (rad/s),GYROSCOPE Y (rad/s),GYROSCOPE Z (rad/s),Time since start in ms ,YYYY-MO-DD HH-MI-SS_SSS
0.9769,7.6594,2.2831,0.6667,6.544,7.2733,-3.399,-1.5504,2.1015,0.7926,1.1206,-0.853,9,2021-05-02 13:31:56:211
20.563,0.652,-2.9435,9.2178,-2.9563,1.5695,4.8973,-2.1765,5.8229,2.2068,-1.8102,1.3972,510,2021-05-02 13:31:56:712
-4.9448,0.8853,1.5347,8.9829,-3.5764,1.6395,1.7353,-1.6971,0.2995,-0.1025,-2.1341,1.3271,1009,2021-05-02 13:31:57:211
11.9037,-2.7141,2.1009,9.0391,-3.7325,0.7309,1.8655,-0.6042,1.6435,0.2109,-0.959,-0.4565,1509,2021-05-02 13:31:57:711
1.6663,-7.081,-3.3407,2.556,-9.4462,-0.6377,0.9351,2.5178,1.123,-0.5664,0.346,0.8407,2009,2021-05-02 13:31:58:211
-0.0562,-10.4949,0.0864,-3.1511,-9.2776,-0.4079,0.5844,0.2127,0.3099,0.0396,0.8132,0.3453,2509,2021-05-02 13:31:58:711
-1.7716,-7.4641,-1.9391,-2.1616,-8.8465,-3.6382,0.8545,0.0924,2.6313,-1.1014,0.7104,-1.2947,3009,2021-05-02 13:31:59:211
-0.516,-8.3557,-1.8972,-0.5334,-9.3085,-3.0394,-3.1587,0.9588,0.8638,1.0262,-0.3179,0.7344,3509,2021-05-02 13:31:59:711
-3.39,-9.3697,0.7029,-2.7434,-9.4077,-0.3735,-2.0169,1.0251,0.3048,0.3715,0.5269,0.1356,4009,2021-05-02 13:32:00:211
-1.0304,-10.0065,-0.9957,-3.7833,-9.0475,0.0278,3.9996,-0.7777,0.8399,-0.7077,-0.6064,-0.1388,4595,2021-05-02 13:32:00:797
-5.097,-12.5767,0.4286,-2.1486,-9.5526,-0.5496,0,0,0,-1.3541,-0.0049,-0.5218,4680,2021-05-02 13:32:00:882
-5.2932,-8.959,0.1774,-0.6528,-9.5483,2.1387,0,0,0,0.232,0.1871,0.199,5314,2021-05-02 13:32:01:516
-5.2932,-8.959,0.1774,-0.6528,-9.5483,2.1387,0,0,0,0.232,0.1871,0.199,5314,2021-05-02 13:32:01:516
-3.5719,-9.1687,0.3401,-3.3316,-9.2188,0.2927,0,0,0,0.0269,0.8668,0.2857,5756,2021-05-02 13:32:01:958
-4.0531,-16.9292,-5.8367,-1.9186,-9.2549,-2.6145,0,0,0,0.1504,0.1122,0.1982,6132,2021-05-02 13:32:02:334
0.4143,3.0317,-1.8721,-2.8285,-9.354,-0.8201,1.4416,-2.4204,-0.983,3.1558,-3.3549,2.3159,6642,2021-05-02 13:32:02:844
1.4067,-15.0676,6.5743,-0.2492,-9.385,-2.8339,1.9123,-5.0705,1.2059,1.4486,7.1219,-1.5587,7113,2021-05-02 13:32:03:315
-10.6358,-0.0568,10.5293,4.3744,-8.2141,-3.0926,12.4349,0.0871,1.386,1.1371,-5.1459,0.2043,7573,2021-05-02 13:32:03:775
-6.7968,-4.9334,-2.5819,-1.9828,-8.9985,-3.3564,5.8958,-25.23,7.5564,1.5019,-1.631,1.4503,8104,2021-05-02 13:32:04:306
-0.0706,9.2803,2.0662,4.9552,-6.3003,-5.65,-14.7524,0.1188,7.26,0.939,-0.9995,1.4776,8575,2021-05-02 13:32:04:777
-0.9108,-0.5752,0.2743,-2.7629,-9.3963,0.4968,8.25,-4.2695,-7.5723,-2.1998,2.211,-2.5462,9072,2021-05-02 13:32:05:274
11.3925,-18.8288,0.035,-0.1452,-9.8055,0.0405,-0.452,0.9316,2.0805,0.035,0.306,2.0019,9572,2021-05-02 13:32:05:774
-4.6205,-12.0918,-6.0437,4.972,-4.4915,-7.1607,0,0,0,-3.5591,1.9927,-3.5431,10072,2021-05-02 13:32:06:274
-30.0841,-4.8736,8.3689,7.3517,-6.0982,-2.2217,-23.3501,-45.8835,7.6243,-9.7339,-11.4615,2.314,10572,2021-05-02 13:32:06:774
9.9727,-23.9617,-18.7493,-2.1373,-8.6724,-4.0487,-22.4162,-12.6776,7.9132,3.7674,-0.1581,2.6098,11073,2021-05-02 13:32:07:275
-8.4344,-0.6206,5.6097,-0.3691,-9.6152,-1.8925,-8.2006,-10.669,3.1236,0.348,-3.4524,-1.8448,11574,2021-05-02 13:32:07:776
-2.0216,1.0397,-1.3836,-3.284,-9.233,0.3698,7.6874,10.7497,-3.5434,-2.3429,0.9508,-0.8999,12073,2021-05-02 13:32:08:275
-6.8183,-8.7269,7.6469,-0.7146,-9.6595,-1.534,-3.4097,9.1045,-2.91,1.0354,-0.8807,1.5511,12572,2021-05-02 13:32:08:774
-6.7693,-6.23,3.5339,0.9348,-9.5789,-1.882,-0.7833,-14.0486,2.1984,-1.1912,-2.141,-1.9391,13072,2021-05-02 13:32:09:274
-1.9008,-27.3422,-5.3327,-2.8267,-9.3775,-0.4928,0,0,0,1.2996,-0.7646,2.1844,13575,2021-05-02 13:32:09:777
0.382,-19.8763,-7.6765,-1.1646,-9.728,-0.4253,1.7032,0.3855,1.2839,0.3063,-0.5046,-0.8332,14072,2021-05-02 13:32:10:274
-8.6474,-6.8046,2.6288,1.7703,-9.5417,-1.4113,-4.7504,0.6191,3.3996,1.2455,-0.7892,0.6869,14572,2021-05-02 13:32:10:774
1.1767,2.4141,-1.3143,-2.3836,-9.3252,1.8789,3.3151,-1.3639,-4.5806,-2.396,0.2075,-2.5129,15072,2021-05-02 13:32:11:274
3.5554,-19.0923,6.3888,0.1679,-9.7826,-0.6659,-7.6036,-5.1934,1.6138,0.4368,-0.9801,2.0833,15572,2021-05-02 13:32:11:774
-4.1584,3.1825,-0.0715,1.385,-9.5284,-1.8606,-9.2624,7.8609,2.8181,0.3447,-0.9184,1.9785,16072,2021-05-02 13:32:12:274
0.4406,-3.5833,-0.676,-2.5401,-9.4279,0.9127,7.207,9.9667,-3.8672,-0.1083,-2.7551,1.083,16572,2021-05-02 13:32:12:774
-5.5998,-4.6307,1.6295,-0.5681,-9.6729,-1.5108,2.3844,-12.5848,11.0972,1.3071,-2.0653,-0.5928,17071,2021-05-02 13:32:13:273
11.444,-26.3593,-9.4373,-0.1225,-9.665,-1.656,-3.8672,-0.0026,-0.0661,0.1451,1.6132,-0.4415,17572,2021-05-02 13:32:13:774
8.7709,-4.9813,4.8972,-2.2632,-8.6247,-4.082,2.582,2.5475,-3.2654,0.6904,1.0736,-0.1639,18071,2021-05-02 13:32:14:273
0.5447,-9.6129,0.3209,-0.2965,-9.7895,-0.4977,2.6344,-0.3283,0.8685,0.2708,1.1382,0.1051,18572,2021-05-02 13:32:14:774
-0.4427,-8.7784,-3.0823,0.544,-9.662,-1.5875,-2.4752,0.557,2.4455,-0.97,-0.903,-1.3628,19072,2021-05-02 13:32:15:274
0.0455,-13.3187,0.8345,1.0508,-9.5783,-1.8227,-2.4356,-1.9023,-4.9225,0.8582,1.789,0.4193,19573,2021-05-02 13:32:15:775
1.2176,-10.0496,-0.8809,0.2841,-9.7712,-0.7831,-2.5314,1.5797,-0.8287,0.1762,0.8515,0.3647,20160,2021-05-02 13:32:16:362
-0.821,-10.4865,0.3245,0.8163,-9.6682,-1.4246,-0.5444,-0.5024,2.112,-1.1962,-0.3433,-0.9201,20572,2021-05-02 13:32:16:774
12.0951,-12.02,0.1307,-3.00E-04,-9.5129,-2.3823,-5.2264,1.1105,-1.1742,-0.066,-0.3412,0.864,21072,2021-05-02 13:32:17:274
-0.2512,-10.3418,-1.0866,-0.6222,-9.7848,0.2029,0.9814,-0.3005,-0.5452,-0.1535,-0.2987,-0.0557,21576,2021-05-02 13:32:17:778
-1.4435,-9.7026,-0.6257,-0.6758,-9.7832,0.041,-0.5899,0.2226,-0.081,-0.0284,-0.0829,0.0455,22072,2021-05-02 13:32:18:274
-1.4961,-9.9072,-1.835,-0.9904,-9.7432,-0.5093,-0.0737,0.0627,-0.2666,-0.0815,-0.0582,0.0241,22572,2021-05-02 13:32:18:774
-1.2485,-9.6033,-1.4231,-1.0135,-9.6885,-1.1294,-0.0242,0.0885,-0.1021,-0.0186,-0.0713,-0.0078,23072,2021-05-02 13:32:19:274
-1.1898,-9.6703,-1.3334,-1.1096,-9.6687,-1.2063,-0.0637,0.0619,-0.068,-0.0199,-0.0017,0.0195,23575,2021-05-02 13:32:19:777
-1.3968,-9.6308,-1.1824,-1.2699,-9.6501,-1.1973,-0.0421,0.0219,-0.0361,0.0272,0.0058,0.0241,24071,2021-05-02 13:32:20:273
-1.4351,-9.888,-1.3238,-1.2958,-9.6809,-0.8784,0.1231,0.0449,0.177,0.0463,0.1362,-0.0628,24575,2021-05-02 13:32:20:777
0.0864,-9.8462,-0.9491,-1.5878,-9.6299,-0.9561,1.5685,-0.2723,0.1274,-0.2317,-0.5204,0.0501,25072,2021-05-02 13:32:21:274
2.0016,-10.1216,-1.3813,-0.001,-9.3161,-3.0627,0.923,-1.1105,0.7289,-0.341,-0.1822,-1.4564,25572,2021-05-02 13:32:21:774
1.1503,-9.6045,5.5104,1.0394,-9.6186,-1.6038,4.3358,-1.3491,-0.0684,0.8541,-0.0588,0.7002,26072,2021-05-02 13:32:22:274
-0.2118,-9.39,0.8369,-1.1468,-9.7392,0.0512,0.8889,0.2839,0.7404,0.5824,-0.3754,0.4725,26575,2021-05-02 13:32:22:777
-1.2197,-8.6767,-2.5519,1.3998,-9.3289,-2.6801,-1.9104,-1.9587,1.4017,-0.8491,0.0805,-1.2919,27072,2021-05-02 13:32:23:274
2.2457,-11.0109,4.0965,0.0276,-9.73,-1.2232,-0.1798,1.4072,2.9049,0.1297,-1.0896,0.5989,27572,2021-05-02 13:32:23:774
1.0379,-9.693,3.8453,-1.0996,-9.6733,-1.1784,1.8281,-0.1524,2.0385,-0.3691,0.3512,0.1129,28073,2021-05-02 13:32:24:275
-0.7744,-9.3924,-2.1532,-0.2683,-8.9254,-4.0541,-1.1289,0.7712,3.1192,-0.1038,2.0002,0.9882,28574,2021-05-02 13:32:24:776
0.8668,-7.6711,-0.3876,0.0929,-9.8026,-0.2655,4.096,-1.3174,0.3472,-0.4523,-0.5137,-0.0628,29072,2021-05-02 13:32:25:274
-5.7482,-13.0448,-12.0924,-0.9875,-9.151,-3.3846,1.0614,0.6712,-2.2802,-0.4994,2.3776,-0.2265,29575,2021-05-02 13:32:25:777
0.7017,-13.7438,-0.5192,-0.1818,-9.7931,0.4825,-2.1103,-0.6483,-1.9428,0.6441,0.877,0.2285,30072,2021-05-02 13:32:26:274
-0.2225,-9.9503,0.5797,0.9088,-9.6098,-1.7308,-1.56,-0.2398,2.4592,-1.05,-0.4752,-0.2074,30575,2021-05-02 13:32:26:777
0.2025,-10.6914,-0.7804,1.9049,-9.131,-3.0277,-1.1732,1.3726,0.7733,2.0665,-0.1492,1.572,31072,2021-05-02 13:32:27:274
0.1475,-8.843,0.2468,0.8524,-9.7616,0.3948,-0.6145,2.8004,-0.4692,-0.044,-0.6608,-0.2443,31575,2021-05-02 13:32:27:777
3.3924,-8.1882,-7.2084,2.4038,-9.2582,-2.1628,-2.7678,0.1221,0.1099,-2.2049,0.1997,-2.4906,32072,2021-05-02 13:32:28:274
-10.078,-6.3317,2.3824,2.3167,-9.133,-2.7188,2.2901,1.0701,9.9584,-0.4736,1.0508,1.5158,32572,2021-05-02 13:32:28:774
5.8382,8.866,-15.6787,2.8563,-8.5911,-3.769,-6.3783,2.7363,-6.7074,1.8127,0.047,4.6666,33128,2021-05-02 13:32:29:330
2.4314,-19.9325,2.8289,0.4536,-9.3795,-2.8267,5.6495,-22.947,-4.6222,2.7569,3.1442,0.2234,33573,2021-05-02 13:32:29:775
-17.3943,-7.5323,0.9482,0.9581,-4.5579,-8.63,4.5383,4.1051,22.2336,2.2331,-4.0331,1.6329,34072,2021-05-02 13:32:30:274
8.7254,-21.3368,-2.1018,-1.7583,-9.5977,-0.9815,-1.4453,-3.5786,-4.0637,0.815,-0.8031,3.942,34576,2021-05-02 13:32:30:778
-9.5596,1.5843,5.8825,3.5105,-9.1444,-0.4753,-11.6492,-2.25,6.8193,-1.2338,-3.8799,-2.8423,35072,2021-05-02 13:32:31:274
3.213,-2.3874,0.3628,-2.1426,-9.1843,2.6885,9.5405,11.1211,-2.9225,-2.3321,0.0742,-2.5411,35572,2021-05-02 13:32:31:774
4.7309,-14.8008,-4.6143,-3.0558,-8.9363,2.6411,12.3243,-17.9015,-9.098,1.4967,-0.7709,0.7936,36073,2021-05-02 13:32:32:275
2.4422,-7.7321,-1.7402,2.2918,-9.4008,-1.5947,-13.5379,12.5017,-4.3899,0.1608,-0.7886,0.2917,36573,2021-05-02 13:32:32:775
9.731,-10.8601,-1.2724,0.4881,-9.7943,0.0545,3.423,2.7942,-2.0755,-0.4699,-0.8283,-2.4561,37072,2021-05-02 13:32:33:274
8.4921,1.6959,0.4167,-3.9609,-8.8922,1.1877,5.0695,5.2535,-5.3764,-2.2838,0.9526,-1.8704,37572,2021-05-02 13:32:33:774
-2.4036,-36.964,-10.9696,1.19,-9.5655,-1.8045,-2.1377,2.3259,3.279,1.2359,-0.4085,1.4253,38072,2021-05-02 13:32:34:274
-9.4469,6.1908,-0.3242,2.2832,-9.2471,-2.3341,-10.6275,8.9966,5.463,0.5128,-0.2859,0.1767,38572,2021-05-02 13:32:34:774
-23.359,-45.0359,23.4132,-3.3688,-8.6335,-3.2068,19.7331,11.3516,6.2932,-1.8437,-11.5304,5.9183,39072,2021-05-02 13:32:35:274
5.4335,-1.8081,-5.9587,-3.532,-9.147,0.1697,10.4131,2.3939,-1.5567,0.5847,-2.6001,-0.9238,39572,2021-05-02 13:32:35:774
-7.1055,-24.492,10.9819,1.4956,-9.6657,-0.713,-6.4869,12.4686,0.0093,0.5256,1.0684,1.6685,40072,2021-05-02 13:32:36:274
-6.3275,-4.0466,2.2424,3.7652,-9.0404,-0.514,-3.1949,-33.2074,-2.2338,0.8249,-0.3972,0.5911,40576,2021-05-02 13:32:36:778
9.4723,0.7107,-4.247,-0.8631,-9.282,3.0445,7.697,10.5745,-8.219,1.7153,-0.7671,1.1537,41073,2021-05-02 13:32:37:275
-8.3372,-29.6082,-0.4953,2.5427,-9.4285,-0.8993,-6.6364,9.7898,-2.7962,1.1304,-1.1165,0.9002,41575,2021-05-02 13:32:37:777
-6.4316,-3.4624,0.4373,4.678,-8.5517,-1.0752,2.2153,-13.3414,0.2971,0.7332,1.2825,1.5926,42073,2021-05-02 13:32:38:275
-0.4092,1.6657,-2.5986,-0.1144,-9.5325,2.2996,2.589,10.9649,-3.1889,-0.2103,-1.5392,0.0066,42572,2021-05-02 13:32:38:774
4.1372,-22.9537,10.9089,2.0153,-9.5917,-0.3297,2.0106,5.9608,1.616,1.0282,-0.7187,1.9066,43072,2021-05-02 13:32:39:274
-2.8645,-5.3118,0.1271,3.6158,-9.0536,-1.0628,1.1227,-1.5494,1.7948,0.2578,0.1655,1.8657,43573,2021-05-02 13:32:39:775
4.002,-4.8006,6.2812,0.7462,-9.7705,0.3875,4.1389,8.7646,-3.4586,-1.2238,1.3327,-0.3616,44072,2021-05-02 13:32:40:274
-3.5922,-18.277,6.8426,3.8435,-8.9352,-1.2492,-4.7418,-8.3868,-2.6597,-0.3135,0.0573,-0.0893,44572,2021-05-02 13:32:40:774
3.7122,-11.2158,-3.5527,0.6623,-9.739,0.94,0.2933,0.6076,0.3644,-1.8191,-0.4445,-2.5827,45072,2021-05-02 13:32:41:274
-5.0862,-14.6297,-6.0281,3.2779,-9.1725,-1.136,-0.9535,3.3433,0.624,1.6568,0.0188,1.2295,45572,2021-05-02 13:32:41:774
3.3123,-8.9761,-3.2103,0.6881,-9.7509,0.786,1.6107,0.6014,-0.3677,0.0913,0.0855,0.7649,46073,2021-05-02 13:32:42:275
0.3018,-4.8078,-0.4499,4.6397,-8.2226,-2.652,-6.9765,1.426,0.1763,0.6336,-0.055,1.3652,46576,2021-05-02 13:32:42:778
1.1527,-9.2285,0.4804,2.0813,-9.4747,-1.438,-3.3385,0.313,1.5979,-0.9835,2.0746,0.1055,47073,2021-05-02 13:32:43:275
1.8712,-12.8136,-2.4754,2.5103,-9.1052,-2.6389,4.4913,4.2991,4.7321,0.1286,1.7635,2.2129,47573,2021-05-02 13:32:43:775
2.0566,-9.1304,-0.7074,1.0143,-9.7498,-0.2867,0.1775,3.7017,-0.1444,-0.0156,-0.2799,-0.4365,48072,2021-05-02 13:32:44:274
0.1032,-2.3731,1.8855,2.2623,-8.8975,-3.4477,0.8163,3.887,1.0774,-0.2973,1.2661,1.3081,48576,2021-05-02 13:32:44:778
6.0643,-7.5873,1.1626,-0.7168,-9.7654,0.5417,-1.1538,-1.182,0.7994,0.5455,-0.0638,0.3286,49072,2021-05-02 13:32:45:274
-3.4187,-15.81,2.4111,0.5324,-9.7756,0.5705,4.9178,-6.06,2.8911,-1.5603,-2.2713,-0.9418,49575,2021-05-02 13:32:45:777
3.1352,-10.8912,-0.3398,1.0099,-9.704,-0.9917,6.915,-3.0577,1.7356,2.0456,0.7654,1.2144,50072,2021-05-02 13:32:46:274
6.1911,-9.9144,0.1295,2.1017,-9.5193,-1.0661,1.4659,-5.622,0.0915,-1.5978,-2.42,-2.1497,50575,2021-05-02 13:32:46:777
-7.0804,-47.6922,-11.6052,3.0896,-8.8746,-2.8046,3.2153,0.2159,-2.2982,-2.6357,-4.9421,0.9861,51072,2021-05-02 13:32:47:274
-0.5447,-7.9466,-4.7366,0.4898,-8.0403,-5.5933,-14.9679,-13.0038,-11.3867,-0.0773,-3.4747,-1.0936,51572,2021-05-02 13:32:47:774
7.8742,-0.9987,-5.0584,1.9064,-9.5639,-1.0337,7.0769,4.09,-4.161,-2.3017,-0.0872,-3.5938,52072,2021-05-02 13:32:48:274
-8.3913,-11.5567,-3.5432,3.0064,-8.3326,-4.2072,-10.0496,-4.7269,-5.3342,-0.9306,0.9161,1.0452,52572,2021-05-02 13:32:48:774
20.8337,-52.6442,-4.9352,1.8777,-9.2477,-2.6691,10.4166,-17.9664,4.1322,-3.296,-0.0554,-1.9515,53072,2021-05-02 13:32:49:274
7.7904,-3.801,-0.3326,0.4192,-9.7933,-0.2929,0.8795,-9.549,-1.5188,1.1189,0.5777,1.2415,53574,2021-05-02 13:32:49:776
26.5795,-47.5436,-18.3781,-0.1923,-9.6138,-1.9258,-3.8757,2.0144,2.9897,1.0274,-1.9781,2.3157,54072,2021-05-02 13:32:50:274
-0.1615,-20.8149,12.0042,0.7189,-8.0948,-5.4888,-9.4778,5.053,8.5136,1.7566,1.5994,5.5641,54576,2021-05-02 13:32:50:778
-36.4681,-37.4106,24.6847,-1.0892,-5.5008,-8.0452,5.2738,-15.9585,26.7338,2.3206,5.3929,-1.2341,55072,2021-05-02 13:32:51:274
-12.3763,-8.7174,-4.7462,-3.1093,-8.3246,-4.1479,-7.0426,-3.0528,-2.4593,-0.7119,0.1419,-0.1521,55572,2021-05-02 13:32:51:774
-0.469,-5.7679,-2.0157,0.6592,-8.4713,-4.8961,-0.2221,1.4476,2.0602,0.2712,-0.7171,-1.433,56074,2021-05-02 13:32:52:276
1.2236,-9.8629,-1.3597,0.5343,-9.781,-0.4664,1.6829,1.256,-0.6055,0.482,-0.129,0.6762,56573,2021-05-02 13:32:52:775
-1.5224,-10.1456,-1.8625,1.4773,-9.3718,-2.4815,-1.5397,-1.1039,0.6185,-1.4888,-0.5893,-1.2692,57073,2021-05-02 13:32:53:275
-0.1304,-13.5823,-10.9816,0.2221,-9.7292,-1.2096,1.4489,-0.7468,0.1774,0.7707,1.3095,-0.1605,57573,2021-05-02 13:32:53:775
-2.1954,-11.6596,-3.0392,-1.1472,-9.738,0.1626,2.996,-2.8622,-0.3939,-1.063,-0.6875,-0.2072,58073,2021-05-02 13:32:54:275
2.5068,-11.3773,-9.4911,2.3633,-8.84,-3.5269,3.8531,-1.991,-2.6221,1.0888,0.3621,-0.2094,58572,2021-05-02 13:32:54:774
2.843,-11.8896,-6.4244,0.6334,-9.7121,-1.2019,-6.2202,-2.9236,-0.3109,0.3424,0.8246,1.1524,59072,2021-05-02 13:32:55:274
-2.5196,-9.0227,-1.4088,-2.3122,-9.5178,-0.4852,0,0,0,0.3702,0.5391,-0.0779,59530,2021-05-02 13:32:55:732
-2.5196,-9.0227,-1.4088,-2.3122,-9.5178,-0.4852,0,0,0,0.3702,0.5391,-0.0779,59530,2021-05-02 13:32:55:732
1.0451,-10.7058,0.673,1.0984,-9.7441,0.1256,0,0,0,-0.7147,-0.7628,-1.4219,59960,2021-05-02 13:32:56:162
1.0451,-10.7058,0.673,1.0984,-9.7441,0.1256,0,0,0,-0.7147,-0.7628,-1.4219,59961,2021-05-02 13:32:56:163
0.0203,-8.9231,0.2515,0.0273,-9.8026,0.2797,0,0,0,0.2492,-0.3825,0.4099,60370,2021-05-02 13:32:56:572
2.9545,-8.6539,7.9463,2.539,-8.3498,4.4726,0,0,0,0.2492,-0.3825,0.4099,60373,2021-05-02 13:32:56:575
2.9545,-8.6539,7.9463,2.539,-8.3498,4.4726,0,0,0,0.211,0.4316,-0.1029,60770,2021-05-02 13:32:56:972
2.9545,-8.6539,7.9463,2.539,-8.3498,4.4726,0,0,0,0.211,0.4316,-0.1029,60770,2021-05-02 13:32:56:972
3.2847,-7.1779,-1.5619,-1.3258,-9.1538,-3.2588,0,0,0,0.947,-0.3541,0.1182,61219,2021-05-02 13:32:57:421
3.2847,-7.1779,-1.5619,-1.3258,-9.1538,-3.2588,0,0,0,0.947,-0.3541,0.1182,61219,2021-05-02 13:32:57:421
1.7456,-9.2752,0.4274,1.7199,-9.6484,0.348,0,0,0,0.1025,-0.0593,-0.1368,61697,2021-05-02 13:32:57:899
1.7456,-9.2752,0.4274,1.7199,-9.6484,0.348,0,0,0,0.1025,-0.0593,-0.1368,61698,2021-05-02 13:32:57:900
4.0259,-12.2258,-2.4431,2.2375,-9.5473,-0.1146,0,0,0,0.2592,0.1332,0.2595,62189,2021-05-02 13:32:58:391
4.0259,-12.2258,-2.4431,2.2375,-9.5473,-0.1146,0,0,0,0.2592,0.1332,0.2595,62189,2021-05-02 13:32:58:391
-0.2082,-9.8031,-1.8182,0.4214,-9.6324,-1.7918,0,0,0,-0.5562,0.0562,-0.5284,62626,2021-05-02 13:32:58:828
-0.2082,-9.8031,-1.8182,0.4214,-9.6324,-1.7918,0,0,0,-0.5562,0.0562,-0.5284,62627,2021-05-02 13:32:58:829
0.8919,-9.6715,0.3138,0.8001,-9.7737,0.0667,0,0,0,-0.0405,-0.1397,-0.0264,63035,2021-05-02 13:32:59:237
0.8919,-9.6715,0.3138,0.8001,-9.7737,0.0667,0,0,0,-0.0405,-0.1397,-0.0264,63036,2021-05-02 13:32:59:238
0.8919,-9.6715,0.3138,0.8001,-9.7737,0.0667,0,0,0,-0.0405,-0.1397,-0.0264,63476,2021-05-02 13:32:59:678
0.8919,-9.6715,0.3138,0.8001,-9.7737,0.0667,0,0,0,-0.0405,-0.1397,-0.0264,63476,2021-05-02 13:32:59:678
0.2874,-9.9132,-0.3601,0.1029,-9.7889,-0.5799,0,0,0,-0.0597,0.1913,0.0276,63935,2021-05-02 13:33:00:137
0.2874,-9.9132,-0.3601,0.1029,-9.7889,-0.5799,0,0,0,-0.0597,0.1913,0.0276,63936,2021-05-02 13:33:00:138
0.2168,-9.7875,-0.4917,0.2871,-9.7922,-0.4476,0,0,0,-0.0047,-0.0183,-0.022,64514,2021-05-02 13:33:00:716
0.2168,-9.7875,-0.4917,0.2871,-9.7922,-0.4476,0,0,0,-0.0047,-0.0183,-0.022,64515,2021-05-02 13:33:00:717
0.2587,-9.8079,-0.585,0.2406,-9.7979,-0.3376,0,0,0,0.011,-0.0089,0.0142,64994,2021-05-02 13:33:01:196
0.2587,-9.8079,-0.585,0.2406,-9.7979,-0.3376,0,0,0,0.011,-0.0089,0.0142,64994,2021-05-02 13:33:01:196
0.2874,-9.7385,-0.4798,0.2504,-9.7908,-0.4978,0,0,0,-0.0069,-0.0189,-0.0061,65455,2021-05-02 13:33:01:657
0.2874,-9.7385,-0.4798,0.2504,-9.7908,-0.4978,0,0,0,-0.0069,-0.0189,-0.0061,65456,2021-05-02 13:33:01:658
0.661,-9.7911,-0.9012,-0.1304,-9.7751,-0.7749,0,0,0,0.0185,-0.0231,0.0533,65860,2021-05-02 13:33:02:062
1.13,-9.4451,-2.2825,-0.0474,-9.702,-1.4281,0.2135,-0.0792,-0.3027,-0.5528,-0.3911,-0.7822,66358,2021-05-02 13:33:02:560
2.2648,-8.1667,-2.5077,3.3321,-8.7704,-2.8543,-0.5251,0.238,0.4078,0.0206,-0.8338,-0.4131,66858,2021-05-02 13:33:03:060
0.3879,-9.9275,-0.2584,1.6383,-9.6091,-1.0731,0.4759,-0.0051,0.0125,0.3978,0.2265,0.409,67357,2021-05-02 13:33:03:559
-0.2608,-10.0579,-0.0033,0.5296,-9.7915,0.1312,0.8589,-0.0229,0.7624,0.0492,0.1475,-0.0217,67856,2021-05-02 13:33:04:058
0.8812,-9.7911,0.4143,0.4198,-9.7953,0.2131,-0.0147,-0.0853,0.0619,0.0489,0.0765,0.0933,68358,2021-05-02 13:33:04:560
0.7077,-9.8785,0.1271,0.0403,-9.8066,-0.0047,0.596,-0.0384,0.091,-0.233,-0.5075,0.1556,68858,2021-05-02 13:33:05:060
3.0227,-9.8186,-1.1967,1.8588,-9.1348,-3.0449,0.4576,-0.4585,1.6509,0.3578,-1.6085,-1.4787,69358,2021-05-02 13:33:05:560
0.5231,-11.5795,-5.8654,1.7509,-9.4794,-1.8018,-3.4933,-2.8183,-0.8373,0.8486,-0.0979,0.1536,69857,2021-05-02 13:33:06:059
0.8608,-9.5961,1.2918,0.8983,-9.7432,-0.6588,-1.5535,0.1504,0.1732,0.3105,0.334,0.2743,70444,2021-05-02 13:33:06:646
1.5502,-9.772,-0.093,0.9175,-9.7221,0.9002,0,0,0,0.4325,0.4029,0.4591,70886,2021-05-02 13:33:07:088
1.5502,-9.772,-0.093,0.9175,-9.7221,0.9002,0,0,0,0.4325,0.4029,0.4591,70887,2021-05-02 13:33:07:089
-0.0156,-10.5619,-0.457,0.8432,-9.7524,-0.592,0,0,0,-0.7894,-0.2889,-1.7591,71376,2021-05-02 13:33:07:578
-0.0156,-10.5619,-0.457,0.8432,-9.7524,-0.592,0,0,0,-0.7894,-0.2889,-1.7591,71377,2021-05-02 13:33:07:579
1.6866,-9.1352,-0.2405,2.1534,-9.5657,-0.1744,0,0,0,-0.4468,-0.057,0.5576,71845,2021-05-02 13:33:08:047
1.6866,-9.1352,-0.2405,2.1534,-9.5657,-0.1744,0,0,0,-0.4468,-0.057,0.5576,71845,2021-05-02 13:33:08:047
3.256,-8.8406,2.1141,2.8384,-9.3626,0.6752,0,0,0,0.6104,1.5424,0.1335,72279,2021-05-02 13:33:08:481
3.256,-8.8406,2.1141,2.8384,-9.3626,0.6752,0,0,0,0.6104,1.5424,0.1335,72280,2021-05-02 13:33:08:482
-6.5285,-2.155,-1.6708,-2.3737,-9.453,-1.0851,0,0,0,0.6383,0.7764,1.5853,72721,2021-05-02 13:33:08:923
-6.5285,-2.155,-1.6708,-2.3737,-9.453,-1.0851,0,0,0,0.6383,0.7764,1.5853,72722,2021-05-02 13:33:08:924
2.4529,-6.3006,-0.6978,5.3221,-8.2248,-0.4451,0,0,0,-0.6081,-0.4717,-0.4348,73132,2021-05-02 13:33:09:334
2.4529,-6.3006,-0.6978,5.3221,-8.2248,-0.4451,0,0,0,-0.6081,-0.4717,-0.4348,73133,2021-05-02 13:33:09:335
0.0661,-3.0864,3.8429,0.5081,-8.8384,4.2185,0,0,0,0.0684,-0.6846,-0.4369,73627,2021-05-02 13:33:09:829
0.0661,-3.0864,3.8429,0.5081,-8.8384,4.2185,0,0,0,0.0684,-0.6846,-0.4369,73628,2021-05-02 13:33:09:830
2.4661,-17.1446,-5.3471,0.0613,-9.8045,0.1971,0,0,0,0.407,-0.6693,0.3473,74016,2021-05-02 13:33:10:218
2.4661,-17.1446,-5.3471,0.0613,-9.8045,0.1971,0,0,0,0.407,-0.6693,0.3473,74017,2021-05-02 13:33:10:219
-6.07,-2.1024,-15.6428,0.0613,-9.8045,0.1971,0,0,0,-0.3766,-0.0765,0.0257,74452,2021-05-02 13:33:10:654
-6.07,-2.1024,-15.6428,0.0613,-9.8045,0.1971,0,0,0,-0.3766,-0.0765,0.0257,74452,2021-05-02 13:33:10:654
-5.6859,-1.2682,-2.1915,1.826,-9.5326,1.4023,0,0,0,-0.5354,-0.3074,-1.0077,75059,2021-05-02 13:33:11:261
-5.6608,-4.4186,-9.1334,-2.0289,-9.4419,1.704,10.5869,-0.9246,7.3293,-2.9783,0.3573,0.6092,75370,2021-05-02 13:33:11:572
3.4884,-2.1191,2.3417,6.8908,4.7987,-5.0655,0,0,0,-1.0186,-1.6859,-0.4658,75868,2021-05-02 13:33:12:070
3.4884,-2.1191,2.3417,6.8908,4.7987,-5.0655,0,0,0,-1.0186,-1.6859,-0.4658,75869,2021-05-02 13:33:12:071
3.4884,-2.1191,2.3417,6.8908,4.7987,-5.0655,0,0,0,-1.0186,-1.6859,-0.4658,76240,2021-05-02 13:33:12:442
3.1448,-7.4402,-2.2513,9.0751,-0.3119,3.7034,0,0,0,5.1504,-3.1043,-1.0245,76782,2021-05-02 13:33:12:984
-2.8693,-11.4969,0.7831,0.411,-9.5688,-2.1069,0,0,0,5.1504,-3.1043,-1.0245,77255,2021-05-02 13:33:13:457
-2.8693,-11.4969,0.7831,0.411,-9.5688,-2.1069,0,0,0,5.1504,-3.1043,-1.0245,77256,2021-05-02 13:33:13:458
0.5076,-8.8872,1.7001,2.6395,-9.3641,1.2315,0,0,0,0.2422,0.6864,0.1545,77661,2021-05-02 13:33:13:863
0.5076,-8.8872,1.7001,2.6395,-9.3641,1.2315,0,0,0,0.2422,0.6864,0.1545,77662,2021-05-02 13:33:13:864
1.7683,0.2533,-0.8545,-1.2516,-9.7265,9.00E-04,0,0,0,0.3361,2.6195,0.3199,78361,2021-05-02 13:33:14:563
1.7683,0.2533,-0.8545,-1.2516,-9.7265,9.00E-04,0,0,0,0.3361,2.6195,0.3199,78362,2021-05-02 13:33:14:564
2.7891,-10.701,-2.4897,8.4055,-0.6804,-5.0055,0,0,0,0.3361,2.6195,0.3199,78934,2021-05-02 13:33:15:136
2.7891,-10.701,-2.4897,8.4055,-0.6804,-5.0055,0,0,0,0.3361,2.6195,0.3199,78935,2021-05-02 13:33:15:137
26.6764,-16.7291,-10.9851,1.413,-9.6531,-0.9955,16.0909,0.9661,-3.893,0.6254,-1.5625,3.6863,79407,2021-05-02 13:33:15:609
3.1172,-0.4325,2.9545,0.9315,-4.3665,-8.7313,0.8621,-5.6766,16.0976,1.7948,2.3793,-3.2835,79908,2021-05-02 13:33:16:110
1.6687,-9.0814,-3.1744,1.7764,-9.4558,-1.8978,-1.089,5.8223,-2.0444,0.4282,-0.6159,-0.1573,80408,2021-05-02 13:33:16:610
-2.3019,-9.5073,-4.1297,-0.2782,-9.801,0.1805,-0.826,-0.1209,-3.0018,0.6275,0.4365,0.4974,80908,2021-05-02 13:33:17:110
-2.953,-3.5426,-0.6485,1.9735,-9.4421,-1.7671,-2.4575,-5.6147,0.1899,-0.2778,-1.3753,-1.5994,81407,2021-05-02 13:33:17:609
-1.0208,-8.1655,-0.4941,0.852,-9.7696,0.0093,-1.2327,-5.3303,1.8891,0.6144,0.7532,0.9454,81908,2021-05-02 13:33:18:110
-5.7314,-13.2171,0.5174,-0.0704,-9.7901,0.5652,4.9284,-4.0552,0.2383,-1.9368,0.6812,-3.5907,82587,2021-05-02 13:33:18:789
-5.7314,-13.2171,0.5174,-0.0704,-9.7901,0.5652,4.9284,-4.0552,0.2383,-1.9368,0.6812,-3.5907,82588,2021-05-02 13:33:18:790
-0.1519,-10.5571,0.6024,1.3861,-9.6623,-0.9432,0,0,0,-1.6394,-1.7409,-1.9795,83053,2021-05-02 13:33:19:255
-0.1519,-10.5571,0.6024,1.3861,-9.6623,-0.9432,0,0,0,-1.6394,-1.7409,-1.9795,83057,2021-05-02 13:33:19:259
4.4841,-11.2672,2.0961,3.2305,-9.2274,0.7675,0,0,0,-0.0408,-0.494,0.0435,83462,2021-05-02 13:33:19:664
4.4841,-11.2672,2.0961,3.2305,-9.2274,0.7675,0,0,0,-0.0408,-0.494,0.0435,83463,2021-05-02 13:33:19:665
2.368,-8.9833,1.3804,1.2854,-9.5582,1.7774,0,0,0,0.056,0.9859,0.4038,83881,2021-05-02 13:33:20:083
2.368,-8.9833,1.3804,1.2854,-9.5582,1.7774,0,0,0,0.056,0.9859,0.4038,83882,2021-05-02 13:33:20:084
3.9036,-14.7087,-7.2586,6.2588,-7.1766,-2.3437,0,0,0,-0.0154,-0.9865,0.8902,84449,2021-05-02 13:33:20:651
3.9036,-14.7087,-7.2586,6.2588,-7.1766,-2.3437,0,0,0,-0.0154,-0.9865,0.8902,84450,2021-05-02 13:33:20:652
0.8321,-12.6509,0.0182,0.7248,-9.7742,-0.3308,0,0,0,-0.4222,-0.609,-0.6444,84908,2021-05-02 13:33:21:110
0.8321,-12.6509,0.0182,0.7248,-9.7742,-0.3308,0,0,0,-0.4222,-0.609,-0.6444,84908,2021-05-02 13:33:21:110
1.4498,-9.5782,-0.02,1.6,-9.6745,0.1193,0,0,0,0.0244,0.8674,0.2617,85311,2021-05-02 13:33:21:513
1.4498,-9.5782,-0.02,1.6,-9.6745,0.1193,0,0,0,0.0244,0.8674,0.2617,85312,2021-05-02 13:33:21:514
-0.7564,-5.8409,-1.8601,-0.1039,-9.5296,-2.3121,0,0,0,1.2507,0.4207,1.151,85701,2021-05-02 13:33:21:903
-0.7564,-5.8409,-1.8601,-0.1039,-9.5296,-2.3121,0,0,0,1.2507,0.4207,1.151,85701,2021-05-02 13:33:21:903
-0.9849,-10.1874,0.358,-2.0849,-9.5465,-0.8292,0,0,0,-1.2008,1.4888,0.2153,86143,2021-05-02 13:33:22:345
-0.9849,-10.1874,0.358,-2.0849,-9.5465,-0.8292,0,0,0,-1.2008,1.4888,0.2153,86143,2021-05-02 13:33:22:345
2.1033,-9.5877,-0.8521,1.3926,-9.6891,-0.5943,0,0,0,-0.7582,-0.2439,-0.149,86675,2021-05-02 13:33:22:877
2.1033,-9.5877,-0.8521,1.3926,-9.6891,-0.5943,0,0,0,-0.7582,-0.2439,-0.149,86675,2021-05-02 13:33:22:877
8.2968,-12.4092,-1.2724,5.5094,-8.1116,0.1388,0,0,0,-0.7765,-0.2101,-0.445,87116,2021-05-02 13:33:23:318
4.0965,2.554,-5.444,4.999,-7.1395,-4.4954,0,0,0,-3.5677,-0.9308,-2.7184,87515,2021-05-02 13:33:23:717
-12.4517,-30.6568,2.9067,-1.2023,-6.3414,7.3832,-12.023,-10.0662,-0.2043,4.4323,0.0363,2.6441,88016,2021-05-02 13:33:24:218
4.5236,1.7521,0.6287,9.489,2.4638,-0.2424,0,0,0,-2.8113,2.4318,-2.0553,88742,2021-05-02 13:33:24:944
-11.6172,2.5995,6.3553,8.4961,3.8033,-3.0857,0,0,0,-1.0281,-2.7117,1.0051,88890,2021-05-02 13:33:25:092
-0.4738,-13.0412,1.5239,-2.0742,-9.1295,2.9189,11.1715,-3.974,-10.6809,1.8049,-1.2064,2.2775,89387,2021-05-02 13:33:25:589
6.2704,-3.9592,0.9338,9.1755,-1.4991,-3.12,0,0,0,-3.8522,0.2382,-4.0711,89886,2021-05-02 13:33:26:088
6.2704,-3.9592,0.9338,9.1755,-1.4991,-3.12,0,0,0,-3.8522,0.2382,-4.0711,90255,2021-05-02 13:33:26:457
4.0403,-16.9077,10.6421,-0.7596,-9.2312,3.2216,0,0,0,2.3634,-1.6453,3.7027,90790,2021-05-02 13:33:26:992
4.0403,-16.9077,10.6421,-0.7596,-9.2312,3.2216,0,0,0,2.3634,-1.6453,3.7027,90794,2021-05-02 13:33:26:996
0.358,-20.0749,-0.7923,0.2601,-9.7915,-0.4792,0,0,0,0.3572,-2.1117,1.2735,91253,2021-05-02 13:33:27:455
0.358,-20.0749,-0.7923,0.2601,-9.7915,-0.4792,0,0,0,0.3572,-2.1117,1.2735,91254,2021-05-02 13:33:27:456
0.358,-20.0749,-0.7923,0.2601,-9.7915,-0.4792,0,0,0,0.3572,-2.1117,1.2735,91686,2021-05-02 13:33:27:888
5.3402,-9.9251,-4.8838,2.6981,-8.6868,-3.6647,0,0,0,-1.6659,0.2665,-2.2221,91857,2021-05-02 13:33:28:059
9.7214,-4.6427,11.0943,9.7673,-0.3751,0.794,0,0,0,-0.8274,-3.4624,-2.7167,92358,2021-05-02 13:33:28:560
1.5849,-3.1702,9.8818,-8.236,1.9828,-4.9403,0,0,0,1.8687,-1.7189,0.0858,92858,2021-05-02 13:33:29:060
-0.9754,-13.9185,6.2189,3.4262,-9.1342,-0.9989,3.4664,-16.7478,1.9871,-3.5081,-0.3073,-2.8524,93360,2021-05-02 13:33:29:562
3.3649,-8.0172,-4.9196,0.7053,-9.7763,0.3113,-5.6203,-18.248,5.1221,1.8301,1.3277,1.5424,93857,2021-05-02 13:33:30:059
4.89,-0.775,-2.9889,3.8268,-8.9846,-0.8958,-6.8708,4.3623,1.1097,0.6473,-1.6088,-0.1544,94357,2021-05-02 13:33:30:559
3.2895,-15.0233,-1.2434,0.3374,-9.8003,-0.1036,5.1654,4.806,-2.8462,-0.3554,-0.6243,-0.2433,94857,2021-05-02 13:33:31:059
2.9976,-20.051,-14.7655,2.2463,-9.4867,-1.0617,1.0971,3.5248,-0.7843,0.079,0.3903,1.4008,95361,2021-05-02 13:33:31:563
3.0598,-17.2654,0.3329,2.6227,-9.4091,-0.8723,-3.3585,-7.8629,1.498,-1.1962,-1.8646,-2.7369,95858,2021-05-02 13:33:32:060
0.1116,-11.4586,4.6017,0.319,-9.649,-1.7223,-2.0861,-8.9312,-3.5496,1.4783,1.3375,0.1116,96357,2021-05-02 13:33:32:559
-1.9869,-16.8706,2.9629,1.9556,-9.549,-1.0784,2.9305,-3.7345,-0.8832,-1.4111,-1.3634,-0.8827,96858,2021-05-02 13:33:33:060
0.3987,-10.701,4.5407,2.3742,-9.3206,-1.9131,5.4525,-0.7135,-2.3561,0.5907,1.6284,0.4401,97361,2021-05-02 13:33:33:563
-0.3182,-3.673,6.2752,1.9065,-9.5445,-1.1993,-2.4594,-7.3001,-2.277,0.9428,-0.0081,0.276,97857,2021-05-02 13:33:34:059
-0.65,-7.3588,-1.8374,-0.416,-9.7299,-1.1514,0,0,0,0.0188,1.1718,0.307,98304,2021-05-02 13:33:34:506
-0.65,-7.3588,-1.8374,-0.416,-9.7299,-1.1514,0,0,0,0.0188,1.1718,0.307,98304,2021-05-02 13:33:34:506
0.7687,-7.8688,0.4385,2.3375,-9.5205,-0.2573,0,0,0,1.5879,1.2264,1.8417,98754,2021-05-02 13:33:34:956
0.7687,-7.8688,0.4385,2.3375,-9.5205,-0.2573,0,0,0,1.5879,1.2264,1.8417,98755,2021-05-02 13:33:34:957
4.2162,-12.8566,-1.8661,4.4396,-8.6374,1.3619,0,0,0,-1.7617,0.27,-2.044,99167,2021-05-02 13:33:35:369
4.2162,-12.8566,-1.8661,4.4396,-8.6374,1.3619,0,0,0,-1.7617,0.27,-2.044,99167,2021-05-02 13:33:35:369
2.3237,-9.055,-1.0053,1.3847,-9.6474,1.0863,0,0,0,0.5675,0.7072,0.9874,99746,2021-05-02 13:33:35:948
2.3237,-9.055,-1.0053,1.3847,-9.6474,1.0863,0,0,0,0.5675,0.7072,0.9874,99747,2021-05-02 13:33:35:949
2.7712,-13.3606,-2.8618,0.5353,-9.0045,3.8474,0,0,0,-0.1761,1.6954,0.4549,100170,2021-05-02 13:33:36:372
2.7712,-13.3606,-2.8618,0.5353,-9.0045,3.8474,0,0,0,-0.1761,1.6954,0.4549,100171,2021-05-02 13:33:36:373
-0.3063,-3.4313,7.7692,-0.1638,-7.3934,6.4406,0,0,0,0.6165,-0.7808,0.7561,100732,2021-05-02 13:33:36:934
-0.3063,-3.4313,7.7692,-0.1638,-7.3934,6.4406,0,0,0,0.6165,-0.7808,0.7561,100732,2021-05-02 13:33:36:934
12.4711,-15.629,-8.08,5.0448,-7.7271,-3.3185,0,0,0,-0.2724,1.1675,1.0794,101144,2021-05-02 13:33:37:346
12.4711,-15.629,-8.08,5.0448,-7.7271,-3.3185,0,0,0,-0.2724,1.1675,1.0794,101145,2021-05-02 13:33:37:347
1.1779,-8.7855,2.5642,0.9008,-9.7251,0.8841,0,0,0,-0.2485,-0.8769,-1.0612,101556,2021-05-02 13:33:37:758
1.1779,-8.7855,2.5642,0.9008,-9.7251,0.8841,0,0,0,-0.2485,-0.8769,-1.0612,101558,2021-05-02 13:33:37:760
1.1779,-8.7855,2.5642,0.9008,-9.7251,0.8841,0,0,0,-0.2485,-0.8769,-1.0612,101992,2021-05-02 13:33:38:194
1.1779,-8.7855,2.5642,0.9008,-9.7251,0.8841,0,0,0,-0.2485,-0.8769,-1.0612,101992,2021-05-02 13:33:38:194
5.7784,-9.4427,3.2261,4.1032,-8.9062,-0.1185,0,0,0,-1.452,1.1725,-1.4427,102415,2021-05-02 13:33:38:617
5.7784,-9.4427,3.2261,4.1032,-8.9062,-0.1185,0,0,0,-1.452,1.1725,-1.4427,102416,2021-05-02 13:33:38:618
9.2258,-14.5205,-5.9216,4.8905,-7.3347,-4.2959,0,0,0,-0.2126,1.4279,1.0294,102862,2021-05-02 13:33:39:064
9.2258,-14.5205,-5.9216,4.8905,-7.3347,-4.2959,0,0,0,-0.2126,1.4279,1.0294,102862,2021-05-02 13:33:39:064
-11.671,-4.8867,-4.0469,-8.7773,-4.365,-0.2758,0,0,0,2.9127,1.7579,2.6696,103348,2021-05-02 13:33:39:550
14.1374,-31.0496,-13.2129,1.832,-9.6159,-0.5911,0,0,0,-1.2719,0.8631,-1.8432,103848,2021-05-02 13:33:40:050
14.1374,-31.0496,-13.2129,1.832,-9.6159,-0.5911,0,0,0,-4.2347,1.3364,-5.4665,104298,2021-05-02 13:33:40:500
17.3393,-23.161,0.3592,1.2122,-9.6238,1.4436,0,0,0,3.5651,0.3861,4.1993,104704,2021-05-02 13:33:40:906
-15.8632,9.2958,2.9414,4.3129,-8.6574,-1.6184,-1.5033,-32.1545,3.1216,-0.3037,-4.2465,-2.3082,105332,2021-05-02 13:33:41:534
-15.8632,9.2958,2.9414,4.3129,-8.6574,-1.6184,-1.5033,-32.1545,3.1216,-0.3037,-4.2465,-2.3082,105333,2021-05-02 13:33:41:535
11.2068,-15.987,-4.4551,4.4538,-7.3989,-4.6465,0,0,0,3.0183,0.3057,2.942,105735,2021-05-02 13:33:41:937
12.0162,-20.5609,-2.1197,-0.9174,-9.7573,-0.3509,6.3832,-3.4581,-0.4294,1.2729,-0.3144,3.7227,106231,2021-05-02 13:33:42:433
-7.1282,-4.541,-2.1473,2.4153,-9.3433,-1.7436,-5.2316,9.866,1.898,-0.5681,0.9706,-1.0583,106734,2021-05-02 13:33:42:936
3.5016,-13.3642,-1.7198,2.507,-9.4318,-0.9628,-1.3681,10.2493,-0.6615,1.1235,-2.1994,-0.6267,107232,2021-05-02 13:33:43:434
4.6615,-5.3142,1.6343,4.2821,-8.5528,-2.1642,3.3924,-3.4298,-2.1731,-0.0327,1.1933,0.9291,107731,2021-05-02 13:33:43:933
-3.1181,-20.7488,-2.097,-0.4381,-9.7862,0.4561,9.852,1.0016,2.1646,-0.2506,-1.4665,-2.1852,108231,2021-05-02 13:33:44:433
4.2078,-10.6205,-2.5519,4.1026,-8.8212,-1.2351,-4.9724,2.1636,-0.4019,-0.5308,-0.3909,-0.3865,108877,2021-05-02 13:33:45:079
4.2078,-10.6205,-2.5519,4.1026,-8.8212,-1.2351,-4.9724,2.1636,-0.4019,-0.5308,-0.3909,-0.3865,108878,2021-05-02 13:33:45:080
1.3504,-11.182,-2.1365,2.4009,-9.4524,-1.0289,0,0,0,0.5864,-0.4058,-0.3931,109333,2021-05-02 13:33:45:535
4.1671,3.6972,-4.4133,-6.5529,5.4259,-4.8774,0,0,0,-0.6078,-0.8431,1.2935,109507,2021-05-02 13:33:45:709
13.7877,-37.5927,1.555,5.2968,-7.7795,-2.7558,0,0,0,-1.4708,-2.2722,-2.6108,110071,2021-05-02 13:33:46:273
13.7877,-37.5927,1.555,5.2968,-7.7795,-2.7558,0,0,0,-1.4708,-2.2722,-2.6108,110080,2021-05-02 13:33:46:282
-34.8413,-35.0644,52.1414,-6.0342,-7.7253,0.2799,0,0,0,1.4775,-0.6266,0.5627,110580,2021-05-02 13:33:46:782
-34.8413,-35.0644,52.1414,-6.0342,-7.7253,0.2799,0,0,0,1.4775,-0.6266,0.5627,110581,2021-05-02 13:33:46:783
1.3169,1.721,-2.3136,6.3621,-5.7958,-4.7014,0,0,0,-1.3689,-0.9433,-2.1638,110920,2021-05-02 13:33:47:122
1.6986,-21.1211,2.2639,-0.3505,-9.7802,-0.6283,0,0,0,-2.6503,1.3165,-3.905,111679,2021-05-02 13:33:47:881
1.6986,-21.1211,2.2639,-0.3505,-9.7802,-0.6283,0,0,0,-2.6503,1.3165,-3.905,111679,2021-05-02 13:33:47:881
1.6986,-21.1211,2.2639,-0.3505,-9.7802,-0.6283,0,0,0,-2.6503,1.3165,-3.905,111680,2021-05-02 13:33:47:882
-5.5301,-54.1394,0.3843,0.6336,-9.7861,0.047,0,0,0,-0.8421,-2.8559,-2.0129,112078,2021-05-02 13:33:48:280
-5.5301,-54.1394,0.3843,0.6336,-9.7861,0.047,0,0,0,-0.8421,-2.8559,-2.0129,112079,2021-05-02 13:33:48:281
7.3968,-4.523,12.69,5.8516,-7.8682,0.1421,0,0,0,0.1376,0.9086,0.3923,112542,2021-05-02 13:33:48:744
7.3968,-4.523,12.69,5.8516,-7.8682,0.1421,0,0,0,0.1376,0.9086,0.3923,112543,2021-05-02 13:33:48:745
9.2294,0.9428,-7.9528,8.5564,1.1571,-4.6497,0,0,0,-2.5544,0.1416,-3.0145,112974,2021-05-02 13:33:49:176
9.2294,0.9428,-7.9528,8.5564,1.1571,-4.6497,0,0,0,-2.5544,0.1416,-3.0145,112975,2021-05-02 13:33:49:177
-8.0393,2.7347,1.2751,-9.6856,1.4189,0.5881,0,0,0,0.4114,1.8084,-0.8944,113379,2021-05-02 13:33:49:581
-8.0393,2.7347,1.2751,-9.6856,1.4189,0.5881,0,0,0,0.4114,1.8084,-0.8944,113390,2021-05-02 13:33:49:592
4.9522,-11.3809,0.667,3.7683,-9.0288,-0.6722,0,0,0,0.5125,-0.4453,0.5006,113806,2021-05-02 13:33:50:008
4.9522,-11.3809,0.667,3.7683,-9.0288,-0.6722,0,0,0,0.5125,-0.4453,0.5006,113808,2021-05-02 13:33:50:010
5.7449,-20.5286,-1.7055,1.501,-9.6801,-0.461,0,0,0,-0.1775,-0.268,-1.3365,114312,2021-05-02 13:33:50:514
5.7449,-20.5286,-1.7055,1.501,-9.6801,-0.461,0,0,0,-0.1775,-0.268,-1.3365,114318,2021-05-02 13:33:50:520
-0.3494,-17.7479,-2.5137,0.9432,-9.7344,-0.7228,0,0,0,-0.6605,-2.486,-2.2191,114772,2021-05-02 13:33:50:974
-0.3494,-17.7479,-2.5137,0.9432,-9.7344,-0.7228,0,0,0,-0.6605,-2.486,-2.2191,114773,2021-05-02 13:33:50:975
-1.3537,-19.2814,-2.9985,0.3944,-9.7114,-1.3049,0,0,0,-2.0582,-0.2026,-2.6929,115214,2021-05-02 13:33:51:416
-1.3537,-19.2814,-2.9985,0.3944,-9.7114,-1.3049,0,0,0,-2.0582,-0.2026,-2.6929,115214,2021-05-02 13:33:51:416
3.0526,-7.5586,-2.9734,3.6932,-9.0192,-1.0885,0,0,0,0.1104,-0.4951,0.2002,115772,2021-05-02 13:33:51:974
3.0526,-7.5586,-2.9734,3.6932,-9.0192,-1.0885,0,0,0,0.1104,-0.4951,0.2002,115776,2021-05-02 13:33:51:978
4.215,-9.0646,5.205,3.4436,-8.4489,3.5955,0,0,0,0.4288,0.3638,0.5896,116206,2021-05-02 13:33:52:408
4.215,-9.0646,5.205,3.4436,-8.4489,3.5955,0,0,0,0.4288,0.3638,0.5896,116207,2021-05-02 13:33:52:409
12.9544,-10.5523,-6.8722,2.2882,-9.3373,-1.9364,-0.1826,2.6139,1.0387,1.6381,-0.2101,0.7764,116620,2021-05-02 13:33:52:822
3.6894,-9.2465,0.8297,1.2384,-9.7235,0.2994,0.6511,0.2847,-1.3131,0.2097,0.5204,0.3833,117116,2021-05-02 13:33:53:318
2.8083,-10.9307,1.3325,2.183,-9.5347,0.7034,0,0,0,-2.3169,1.4993,-1.4874,117616,2021-05-02 13:33:53:818
2.8083,-10.9307,1.3325,2.183,-9.5347,0.7034,0,0,0,-2.3169,1.4993,-1.4874,117617,2021-05-02 13:33:53:819
4.6424,-8.6288,-0.6879,2.1496,-9.5654,-0.2286,2.4477,0.7343,-0.1781,-0.0793,0.7126,0.4365,117955,2021-05-02 13:33:54:157
4.3011,-9.8342,-1.8852,4.2666,-8.4813,-2.4563,-3.2436,-1.2478,1.5568,0.4678,-1.301,-1.6588,118455,2021-05-02 13:33:54:657
-2.4191,-11.9375,-4.5365,-0.5043,-9.5852,-2.0099,0,0,0,0.5646,-0.1313,1.0296,118957,2021-05-02 13:33:55:159
3.3637,-13.6122,-1.1656,1.9028,-9.2388,-2.6823,4.1824,-2.4049,-5.9403,-0.917,1.2961,-0.8214,119454,2021-05-02 13:33:55:656
10.2434,-13.4614,-7.7076,2.3787,-9.476,-0.8472,-0.9901,0.1948,-4.6316,-0.4419,-1.1957,-0.2092,119954,2021-05-02 13:33:56:156
-2.8908,-6.6966,-3.9308,4.0006,-8.3322,-3.2771,5.3608,-4.1918,-4.3712,-1.6027,0.0367,-1.1866,120454,2021-05-02 13:33:56:656
-7.934,-6.7902,-2.6034,0.6567,-9.7788,0.3383,-11.4823,1.477,-2.1752,-1.0056,0.5105,0.693,121244,2021-05-02 13:33:57:446
-7.934,-6.7902,-2.6034,0.6567,-9.7788,0.3383,-11.4823,1.477,-2.1752,-1.0056,0.5105,0.693,121244,2021-05-02 13:33:57:446
7.7521,-9.262,-2.2202,5.4999,-8.0711,0.8825,-11.4823,1.477,-2.1752,-0.2717,0.1411,0.171,121677,2021-05-02 13:33:57:879
7.7521,-9.262,-2.2202,5.4999,-8.0711,0.8825,-11.4823,1.477,-2.1752,-0.2717,0.1411,0.171,121684,2021-05-02 13:33:57:886
2.2504,-2.3551,-2.8307,5.2954,-6.271,-5.3669,0,0,0,-0.8401,1.5453,1.9578,122283,2021-05-02 13:33:58:485
2.2504,-2.3551,-2.8307,5.2954,-6.271,-5.3669,0,0,0,-0.8401,1.5453,1.9578,122283,2021-05-02 13:33:58:485
1.7237,-11.3402,-0.4164,1.5936,-9.6752,0.1455,0,0,0,-2.3279,1.4847,-1.565,122694,2021-05-02 13:33:58:896
1.7237,-11.3402,-0.4164,1.5936,-9.6752,0.1455,0,0,0,-2.3279,1.4847,-1.565,122695,2021-05-02 13:33:58:897
6.4594,-14.2837,-2.9085,-3.5529,-8.775,2.5585,0,0,0,-0.62,0.8109,3.9557,123148,2021-05-02 13:33:59:350
6.4594,-14.2837,-2.9085,-3.5529,-8.775,2.5585,0,0,0,-0.62,0.8109,3.9557,123148,2021-05-02 13:33:59:350
-0.516,-7.075,-1.2338,-3.2363,-7.877,-4.8631,0,0,0,0.3129,0.4245,0.431,123706,2021-05-02 13:33:59:908
-5.7087,-10.7058,-2.6919,-1.8269,-9.6313,0.2681,-0.5071,-0.92,0.32,-0.6414,0.1648,-0.478,124134,2021-05-02 13:34:00:336
2.1464,-11.8143,-7.3173,-2.2697,-9.3888,-1.6939,0.2725,1.6647,-1.9202,0.9373,-0.7837,0.1512,124552,2021-05-02 13:34:00:754
-1.5667,-9.4511,-0.5288,-3.5619,-9.124,-0.485,0,0,0,0.3157,-0.2373,0.202,125051,2021-05-02 13:34:01:253
-2.0348,-9.3063,-1.1572,-3.212,-9.2067,-1.044,-0.8813,1.5615,-0.5313,-1.0073,1.2354,-0.1228,125550,2021-05-02 13:34:01:752
-3.3637,-8.441,-2.9435,-3.9321,-8.3495,-3.3159,0,0,0,-1.4132,0.1304,-0.7109,126050,2021-05-02 13:34:02:252
-3.3637,-8.441,-2.9435,-3.9321,-8.3495,-3.3159,0,0,0,-1.4132,0.1304,-0.7109,126472,2021-05-02 13:34:02:674
-5.0815,-11.473,-1.2556,-3.4274,-8.8442,-2.4905,0,0,0,-0.4664,-0.0394,-0.2688,126712,2021-05-02 13:34:02:914
-3.0033,-10.2197,-0.347,-2.9293,-9.3095,-0.9609,0,0,0,-0.2517,-0.6887,-1.0679,127213,2021-05-02 13:34:03:415
-3.0033,-10.2197,-0.347,-2.9293,-9.3095,-0.9609,0,0,0,-0.2517,-0.6887,-1.0679,127215,2021-05-02 13:34:03:417
-1.9941,-9.5169,-0.0081,-2.0718,-9.5852,0.0538,0,0,0,0.1781,-0.0371,0.2796,127598,2021-05-02 13:34:03:800
-6.5656,-9.0933,-1.5511,-3.4287,-9.1542,-0.7843,-1.2012,-0.1798,-0.247,-1.3964,1.1427,-0.7026,128098,2021-05-02 13:34:04:300
-1.9499,-10.6134,-0.5312,-0.3502,-9.7797,-0.6363,0,0,0,-0.518,0.4406,-1.5564,128519,2021-05-02 13:34:04:721
-1.9499,-10.6134,-0.5312,-0.3502,-9.7797,-0.6363,0,0,0,-0.518,0.4406,-1.5564,128519,2021-05-02 13:34:04:721
-1.7405,-8.8394,-2.0037,-1.7775,-9.3221,-2.4715,0,0,0,-0.0188,-0.2553,-0.2701,128934,2021-05-02 13:34:05:136
-1.7405,-8.8394,-2.0037,-1.7775,-9.3221,-2.4715,0,0,0,-0.0188,-0.2553,-0.2701,128934,2021-05-02 13:34:05:136
-1.7405,-8.8394,-2.0037,-1.7775,-9.3221,-2.4715,0,0,0,-0.0188,-0.2553,-0.2701,129319,2021-05-02 13:34:05:521
-1.7405,-8.8394,-2.0037,-1.7775,-9.3221,-2.4715,0,0,0,-0.0188,-0.2553,-0.2701,129319,2021-05-02 13:34:05:521
-2.2493,-8.9626,2.9342,-3.8847,-9.0028,0.172,0,0,0,-0.2981,1.1441,0.0377,129811,2021-05-02 13:34:06:013
-2.2493,-8.9626,2.9342,-3.8847,-9.0028,0.172,0,0,0,-0.2981,1.1441,0.0377,129812,2021-05-02 13:34:06:014
-4.0388,-8.3617,-0.3135,-3.6126,-9.1101,-0.3539,0,0,0,-0.3715,-0.3473,-0.0525,130203,2021-05-02 13:34:06:405
-1.5081,-8.053,-3.4783,-1.6182,-8.5932,-4.4395,0,0,0,-0.1503,0.4481,-0.0848,130302,2021-05-02 13:34:06:504
7.7725,-4.4282,5.3079,1.085,-8.5282,-4.7183,0,0,0,-1.8144,4.5352,-2.1864,130998,2021-05-02 13:34:07:200
7.7725,-4.4282,5.3079,1.085,-8.5282,-4.7183,0,0,0,-1.8144,4.5352,-2.1864,130999,2021-05-02 13:34:07:201
24.7382,11.3213,-24.9236,-3.3781,1.2599,9.1198,0,0,0,-3.8783,-3.7957,-1.39,131469,2021-05-02 13:34:07:671
-8.0536,-3.9951,-10.1626,-2.5855,-9.4516,0.39,-0.3623,-10.3174,-21.2683,-1.7707,2.6975,0.0939,131969,2021-05-02 13:34:08:171
-8.42,-3.1953,1.8066,-0.3614,-9.1777,-3.4364,-2.7361,10.6085,6.3894,3.1205,-1.5225,-0.9708,132469,2021-05-02 13:34:08:671
-7.3451,-23.9342,10.7593,1.2501,-7.733,-5.8999,-2.7837,0.3381,2.8909,-0.9842,-2.8215,1.2556,132969,2021-05-02 13:34:09:171
-60.8806,-2.2161,6.9694,4.5949,-6.9573,-5.1627,7.0216,-44.6329,2.1015,-1.9346,0.3066,-13.54,133469,2021-05-02 13:34:09:671
-14.027,-1.3388,-11.7224,-4.6153,-6.8284,-5.3144,-10.0969,-5.5222,2.4348,4.8614,1.8919,0.3392,133969,2021-05-02 13:34:10:171
-2.9339,-5.8947,-7.6884,-2.8955,-9.241,-1.5464,1.971,2.033,0.9987,-0.5621,0.5101,-1.5761,134742,2021-05-02 13:34:10:944
-1.8326,-20.5059,-3.4137,-1.7903,-9.047,-3.3343,0,0,0,-2.4634,-0.4242,-0.0953,134849,2021-05-02 13:34:11:051
-7.7255,-19.9122,0.8154,0.2965,-9.2709,-3.1832,0,0,0,-1.6329,0.0353,-2.6511,135479,2021-05-02 13:34:11:681
0.7687,-15.1286,-2.6106,-2.0459,-9.5603,-0.7645,0,0,0,-0.1697,-1.8968,-1.689,135527,2021-05-02 13:34:11:729
-4.3211,-4.7456,-0.8809,-0.379,-9.6899,-1.4605,0,0,0,-1.0972,-1.775,-1.1157,136220,2021-05-02 13:34:12:422
-4.3211,-4.7456,-0.8809,-0.379,-9.6899,-1.4605,0,0,0,-1.0972,-1.775,-1.1157,136221,2021-05-02 13:34:12:423
-4.3008,-4.8556,0.0494,-3.8567,-8.8941,-1.4804,0,0,0,0.783,-1.3349,1.5022,136648,2021-05-02 13:34:12:850
-4.162,-10.6519,-2.237,-1.9897,-9.2719,-2.4987,0,0,0,0.0628,-0.3593,-1.8154,136739,2021-05-02 13:34:12:941
-3.2079,-10.5248,-2.1556,2.699,-9.3908,0.8356,0,0,0,-1.6537,1.4271,-0.9548,137414,2021-05-02 13:34:13:616
-3.2079,-10.5248,-2.1556,2.699,-9.3908,0.8356,0,0,0,-1.6537,1.4271,-0.9548,137415,2021-05-02 13:34:13:617
-1.8876,-11.2863,-2.7577,-1.3893,-9.542,-1.7861,0,0,0,-0.1371,1.0829,-2.1485,137894,2021-05-02 13:34:14:096
-1.8876,-11.2863,-2.7577,-1.3893,-9.542,-1.7861,0,0,0,-0.1371,1.0829,-2.1485,137894,2021-05-02 13:34:14:096
-1.7094,-8.91,1.5673,-1.9405,-9.5332,1.2341,0,0,0,0.8668,-0.2486,0.9357,138456,2021-05-02 13:34:14:658
-1.7094,-8.91,1.5673,-1.9405,-9.5332,1.2341,0,0,0,0.8668,-0.2486,0.9357,138457,2021-05-02 13:34:14:659
-1.1791,-8.1464,2.6121,1.4852,-9.0369,-3.5069,0,0,0,0.2769,0.7061,0.7011,138856,2021-05-02 13:34:15:058
-0.9574,-14.5361,1.6534,-0.7917,-9.3745,2.7682,0,0,0,1.175,0.3598,0.2676,138920,2021-05-02 13:34:15:122
4.8541,-10.8147,-5.1855,-2.5056,-9.4808,-0.0851,0,0,0,0.8637,0.2184,-0.016,139528,2021-05-02 13:34:15:730
4.8541,-10.8147,-5.1855,-2.5056,-9.4808,-0.0851,0,0,0,0.8637,0.2184,-0.016,139529,2021-05-02 13:34:15:731
3.1555,-12.0188,-5.225,-0.0649,-9.7299,-1.223,0,0,0,0.5143,-0.2847,0.6141,139962,2021-05-02 13:34:16:164
3.1555,-12.0188,-5.225,-0.0649,-9.7299,-1.223,0,0,0,0.5143,-0.2847,0.6141,139975,2021-05-02 13:34:16:177
14.9704,-31.0603,0.2336,-6.2892,1.2681,-7.4168,0,0,0,4.096,0.1901,-0.7089,140476,2021-05-02 13:34:16:678
-8.0166,-18.009,14.8543,-8.9286,-3.7274,-1.5987,8.7137,-9.8155,4.1105,-0.5921,3.7944,7.4154,141009,2021-05-02 13:34:17:211
30.8958,-72.1765,-40.3762,-7.7626,-5.8369,-1.358,-0.3687,-4.1646,12.6762,4.0951,-2.0772,3.7147,141479,2021-05-02 13:34:17:681
-12.1786,2.6115,14.4978,3.5267,-9.1301,-0.6118,-18.1688,12.6592,25.601,-2.3539,-7.6464,0.394,142025,2021-05-02 13:34:18:227
-39.6509,7.5733,23.2409,-1.5706,-6.9231,-6.7657,-34.4735,12.9973,11.6833,0.5693,-2.7728,-3.9817,142480,2021-05-02 13:34:18:682
-26.3889,-7.6292,27.2689,5.9054,-7.4605,-2.3744,14.1602,-54.5184,8.9433,-2.4324,-6.155,-1.7803,142978,2021-05-02 13:34:19:180
2.2828,-18.2925,-4.5832,0.8018,-9.0721,-3.6365,11.402,-31.7123,1.0763,-0.2932,-7.7199,-2.024,143476,2021-05-02 13:34:19:678
-3.8088,-1.8428,12.2545,2.4097,-9.0045,-3.0467,-20.0555,18.2732,18.132,-1.3281,0.762,1.5903,144027,2021-05-02 13:34:20:229
5.9734,-13.2972,1.2823,0.0545,-9.7405,1.1358,0,0,0,1.1511,1.1971,2.6593,144426,2021-05-02 13:34:20:628
-13.5482,-13.9029,-30.3652,7.5559,5.8495,2.2053,0,0,0,-0.9053,0.7813,-0.0476,144925,2021-05-02 13:34:21:127
-0.0263,-5.7272,4.3119,-2.1203,-9.5571,-0.5809,1.2338,3.4965,0.2795,-0.2056,1.2663,1.4283,145443,2021-05-02 13:34:21:645
-0.0263,-5.7272,4.3119,-2.1203,-9.5571,-0.5809,1.2338,3.4965,0.2795,-0.2056,1.2663,1.4283,145444,2021-05-02 13:34:21:646
1.6005,-16.5341,-1.223,2.8583,-9.3748,-0.3364,0,0,0,-0.963,-0.5388,-1.7313,145850,2021-05-02 13:34:22:052
1.6005,-16.5341,-1.223,2.8583,-9.3748,-0.3364,0,0,0,-0.963,-0.5388,-1.7313,145851,2021-05-02 13:34:22:053
-0.5231,-10.9343,-1.3298,-3.6832,-8.9388,-1.6436,0,0,0,-0.2341,-1.2528,-0.1228,146232,2021-05-02 13:34:22:434
-1.1312,-3.4816,-3.5396,1.6557,-8.4368,-4.7169,-4.8493,-0.2204,-0.3482,-1.074,-0.1526,0.1373,146729,2021-05-02 13:34:22:931
6.3314,-10.6409,3.00E-04,2.2831,-7.3059,-6.1304,-2.6151,-1.0933,2.4664,0.7095,1.5935,0.2056,147232,2021-05-02 13:34:23:434
10.6669,-24.8285,5.709,5.6055,-6.5869,-4.6218,-1.6557,-36.1948,1.9023,-1.3055,1.0876,-4.7939,147728,2021-05-02 13:34:23:930
6.8486,-3.0242,-24.9727,-1.0666,-9.6207,-1.5729,11.6026,-10.177,-15.0804,3.3635,0.7629,1.4135,148228,2021-05-02 13:34:24:430
11.4416,-5.6459,-8.4616,0.7611,-9.6651,-1.4752,-8.4765,3.5197,5.4827,0.0976,-0.8086,-0.4499,148728,2021-05-02 13:34:24:930
2.9868,-8.9207,3.2635,0.204,-9.6918,-1.4822,-1.6752,1.453,5.0762,0.8604,0.5375,1.3944,149531,2021-05-02 13:34:25:733
1.0319,-7.7489,0.5713,-6.2521,-7.1173,-2.535,0,0,0,-2.0644,1.8765,-1.4453,149729,2021-05-02 13:34:25:931
12.6637,-14.7003,-21.8913,3.0951,-7.6301,-5.3265,6.5122,0.5183,-6.6405,1.37,-1.2527,0.3149,150329,2021-05-02 13:34:26:531
12.6637,-14.7003,-21.8913,3.0951,-7.6301,-5.3265,6.5122,0.5183,-6.6405,1.37,-1.2527,0.3149,150330,2021-05-02 13:34:26:532
-4.1788,-8.8083,1.6869,0.9396,-9.6423,-1.5208,0,0,0,2.966,-1.7224,0.5443,150775,2021-05-02 13:34:26:977
9.7322,3.0209,-11.6339,-0.4827,-9.7878,-0.3688,8.9377,-1.826,-3.5045,1.4324,1.0143,1.1895,151347,2021-05-02 13:34:27:549
17.0713,5.9512,-7.1127,-2.9285,-9.1417,2.0056,4.6995,-5.1472,-5.7637,1.1785,0.516,3.0014,151724,2021-05-02 13:34:27:926
-5.0097,-2.6291,0.6742,-3.7256,-8.9674,-1.3699,0,0,0,-1.5007,1.7719,-2.8337,152220,2021-05-02 13:34:28:422
-5.0097,-2.6291,0.6742,-3.7256,-8.9674,-1.3699,0,0,0,-1.5007,1.7719,-2.8337,152524,2021-05-02 13:34:28:726
0.1881,-4.2583,2.0279,4.3892,-7.0141,-5.2638,0,0,0,0.3283,-1.4702,1.0623,153027,2021-05-02 13:34:29:229
-14.7751,-19.7758,1.1889,3.0214,-9.2267,-1.382,0,0,0,1.2767,-1.2701,5.0685,153524,2021-05-02 13:34:29:726
-4.4794,16.9116,10.2039,4.5434,-8.2019,-2.8735,-12.8556,4.0866,6.1291,-0.5353,-5.8218,-1.4931,154024,2021-05-02 13:34:30:226
-3.4427,-24.5901,11.5887,-3.0131,-8.9416,2.6721,0,0,0,0.3375,-0.2581,1.7415,154524,2021-05-02 13:34:30:726
11.9073,-7.8796,6.4845,-3.0131,-8.9416,2.6721,0,0,0,0.087,-0.8921,2.2496,154711,2021-05-02 13:34:30:913
3.6105,-5.5606,-6.2626,8.967,2.8657,-2.7479,0,0,0,-2.6167,-0.1376,-2.4741,155332,2021-05-02 13:34:31:534
34.5805,-21.0362,-7.9122,-2.5216,-8.8218,3.4623,-34.1962,-32.2951,4.3786,1.1518,2.8065,-1.7776,155712,2021-05-02 13:34:31:914
-1.0364,-10.6723,1.9561,2.5406,-8.9657,-3.0548,-0.1685,0.0405,6.3793,-0.0834,-1.7993,-0.1405,156213,2021-05-02 13:34:32:415
-3.1481,-4.1506,-1.4351,2.663,-9.0031,-2.8324,-5.762,4.1335,1.4832,0.9005,-0.4589,-0.5182,156808,2021-05-02 13:34:33:010
3.146,-8.8693,0.7172,0.3089,-9.7313,1.1737,1.8551,-0.051,0.0616,-0.7158,-0.1501,-0.2611,157212,2021-05-02 13:34:33:414
-3.0523,-24.4609,10.0807,2.2039,-9.3307,-2.0616,4.6687,4.4721,-3.0537,-0.6092,-0.6362,1.8906,157713,2021-05-02 13:34:33:915
-2.6166,-16.7471,0.5713,2.4961,-9.3956,-1.2897,-6.35,-9.1452,-0.0494,-1.1899,1.1201,-2.8693,158215,2021-05-02 13:34:34:417
1.555,-4.4653,-0.8844,0.7171,-9.7647,-0.5534,-0.4871,-2.9822,0.8396,0.5711,0.6125,1.3275,158713,2021-05-02 13:34:34:915
-0.0479,-8.6121,1.1506,-2.4294,-9.461,0.8709,0,0,0,-2.0138,1.5024,-2.2649,159212,2021-05-02 13:34:35:414
0.7376,-8.849,2.7906,-1.3175,-9.6577,-1.0786,0.4374,1.099,7.7574,-0.4137,-0.0504,0.3418,159712,2021-05-02 13:34:35:914
-0.9132,-10.9869,-2.8056,-0.6593,-9.7751,0.428,1.9164,-0.2888,0.5279,3.00E-04,0.6959,-0.2483,160215,2021-05-02 13:34:36:417
8.2884,0.7131,-2.6501,0.6202,-8.9163,-4.0356,6.5966,-0.5049,-5.9716,-0.1486,-0.4963,0.3541,160712,2021-05-02 13:34:36:914
-1.1001,-9.0108,-5.231,-0.7473,-8.3854,-5.0296,0.0165,-0.7329,-0.3722,0.002,0.0035,-0.1503,161215,2021-05-02 13:34:37:417
-0.1232,-8.4171,-5.2513,-0.8676,-8.4495,-4.9014,0.2813,-0.0332,-0.467,0.0281,0.0139,-0.0394,161712,2021-05-02 13:34:37:914
0.1283,-8.6252,-5.3327,-0.2971,-8.4348,-4.9936,0.183,-0.1135,-0.133,0.1077,0.0669,-0.1124,162212,2021-05-02 13:34:38:414
-0.2225,-8.3773,-5.1987,-0.1433,-8.3393,-5.1581,0,0,0,0.1208,0.0647,-0.077,162712,2021-05-02 13:34:38:914
-0.2225,-8.3773,-5.1987,-0.1433,-8.3393,-5.1581,0,0,0,0.1208,0.0647,-0.077,163080,2021-05-02 13:34:39:282
-0.2225,-8.3773,-5.1987,-0.1433,-8.3393,-5.1581,0,0,0,0.1208,0.0647,-0.077,163080,2021-05-02 13:34:39:282
0.1666,-7.2401,-4.7282,0.3202,-8.474,-4.9253,0,0,0,-0.1799,0.253,0.0347,163629,2021-05-02 13:34:39:831
0.1666,-7.2401,-4.7282,0.3202,-8.474,-4.9253,0,0,0,-0.1799,0.253,0.0347,163630,2021-05-02 13:34:39:832
1.2571,-7.7836,-4.2063,1.8159,-8.7738,-3.9866,0,0,0,-0.0295,0.0111,0.1362,164068,2021-05-02 13:34:40:270
1.2571,-7.7836,-4.2063,1.8159,-8.7738,-3.9866,0,0,0,-0.0295,0.0111,0.1362,164069,2021-05-02 13:34:40:271
-1.5535,-9.7433,-2.7075,-2.0282,-9.1658,-2.8365,0,0,0,0.5427,-0.9233,-0.4638,164470,2021-05-02 13:34:40:672
-0.6045,-10.8829,0.8991,0.2401,-9.7869,-0.573,0.1133,0.1831,0.264,1.3506,-0.2646,0.2822,164972,2021-05-02 13:34:41:174
1.882,-9.8103,-0.1747,1.0328,-9.7519,0.0698,0.7565,0.5174,-0.3781,0.0344,-0.5776,-0.0351,165470,2021-05-02 13:34:41:672
1.5945,-10.7393,-5.499,2.2421,-9.489,-1.0504,1.1549,-2.6221,-0.2366,-0.9755,0.6124,-0.5745,165970,2021-05-02 13:34:42:172
3.9024,-15.7023,-7.4683,-0.1231,-9.792,-0.5209,-3.446,0.6441,-0.5489,0.2871,0.6102,0.3709,166470,2021-05-02 13:34:42:672
4.27,-9.1376,1.1459,1.0207,-9.7087,-0.9323,2.5167,0.4732,1.4161,-0.6513,-0.3932,-0.3363,166971,2021-05-02 13:34:43:173
2.7377,-8.6444,-2.5555,1.8525,-9.1791,-2.9124,-0.7965,-0.2961,-1.3734,-0.7686,0.7935,-0.3841,167755,2021-05-02 13:34:43:957
2.7377,-8.6444,-2.5555,1.8525,-9.1791,-2.9124,-0.7965,-0.2961,-1.3734,-0.7686,0.7935,-0.3841,167755,2021-05-02 13:34:43:957
2.6731,-7.057,-2.7003,2.9385,-8.8681,-2.9819,0,0,0,-0.3592,0.8445,-0.2194,168335,2021-05-02 13:34:44:537
2.6731,-7.057,-2.7003,2.9385,-8.8681,-2.9819,0,0,0,-0.3592,0.8445,-0.2194,168336,2021-05-02 13:34:44:538
2.5032,-9.9503,-0.7696,2.3883,-9.5113,0.0273,0,0,0,-0.0354,0.0302,-0.1057,168735,2021-05-02 13:34:44:937
2.5032,-9.9503,-0.7696,2.3883,-9.5113,0.0273,0,0,0,-0.0354,0.0302,-0.1057,168735,2021-05-02 13:34:44:937
1.0475,-9.5447,-4.9842,0.9025,-8.7154,-4.4044,0,0,0,-0.5236,0.3748,-0.5664,169144,2021-05-02 13:34:45:346
1.5658,-9.3553,-0.5264,3.0533,-9.136,1.8387,0,0,0,-0.2807,-0.5959,-0.2643,169472,2021-05-02 13:34:45:674
-2.5029,-7.2978,-6.7499,-0.7877,-7.5001,-6.2688,0,0,0,-0.6747,-1.0504,0.8399,169986,2021-05-02 13:34:46:188
-2.5029,-7.2978,-6.7499,-0.7877,-7.5001,-6.2688,0,0,0,-0.6747,-1.0504,0.8399,169987,2021-05-02 13:34:46:189
5.8406,-9.0024,6.1711,4.4626,-8.7151,-0.5499,0,0,0,-1.9735,-0.3331,-0.9044,170550,2021-05-02 13:34:46:752
0.8991,-5.5259,20.185,-8.5966,-4.5585,-1.2202,0,0,0,-0.1112,2.8017,5.7673,171065,2021-05-02 13:34:47:267
-5.8271,8.9689,3.2444,0.9459,-9.734,-0.7246,-5.8029,14.0816,6.9234,-0.6927,-1.0716,0.5863,171477,2021-05-02 13:34:47:679
-8.3312,-16.8826,-0.2764,-2.3474,-9.0844,2.852,0,0,0,-1.8417,2.8693,-0.0907,172194,2021-05-02 13:34:48:396
-2.819,1.8383,3.9996,-6.1923,6.1613,4.4569,0,0,0,0.4949,-0.719,1.6056,172247,2021-05-02 13:34:48:449
6.117,-2.9728,8.9877,7.0455,-6.5369,1.9492,0,0,0,-2.2672,-1.8072,-1.3591,172748,2021-05-02 13:34:48:950
13.8332,-11.546,-0.099,8.8955,-4.1174,0.2949,0,0,0,-1.7563,-2.1424,1.321,173248,2021-05-02 13:34:49:450
13.8332,-11.546,-0.099,8.8955,-4.1174,0.2949,0,0,0,-1.7563,-2.1424,1.321,173560,2021-05-02 13:34:49:762
1.1731,-9.6105,-3.044,2.6171,-7.0245,-6.3227,0,0,0,-1.0297,0.8329,0.9389,174012,2021-05-02 13:34:50:214
1.1731,-9.6105,-3.044,2.6171,-7.0245,-6.3227,0,0,0,-1.0297,0.8329,0.9389,174013,2021-05-02 13:34:50:215
-7.1557,-20.281,-1.6349,-3.0387,-9.1627,-1.7268,0,0,0,-0.5317,-1.7938,0.1168,174441,2021-05-02 13:34:50:643
-7.1557,-20.281,-1.6349,-3.0387,-9.1627,-1.7268,0,0,0,-0.5317,-1.7938,0.1168,174442,2021-05-02 13:34:50:644
-9.6924,-12.9227,-2.8941,-4.7508,-8.4235,-1.6265,0,0,0,-0.1222,1.0762,-3.1616,174851,2021-05-02 13:34:51:053
-9.6924,-12.9227,-2.8941,-4.7508,-8.4235,-1.6265,0,0,0,-0.1222,1.0762,-3.1616,174852,2021-05-02 13:34:51:054
2.6779,-10.6866,0.7878,2.4847,-9.1839,2.3775,0,0,0,-1.3426,0.21,-1.9208,175474,2021-05-02 13:34:51:676
2.6779,-10.6866,0.7878,2.4847,-9.1839,2.3775,0,0,0,-1.3426,0.21,-1.9208,175475,2021-05-02 13:34:51:677
-5.4452,-15.0509,-3.6772,-3.1101,-9.0805,-2.0104,0,0,0,0.2805,2.03,-3.1196,176036,2021-05-02 13:34:52:238
-5.4452,-15.0509,-3.6772,-3.1101,-9.0805,-2.0104,0,0,0,0.2805,2.03,-3.1196,176037,2021-05-02 13:34:52:239
2.8768,-11.085,3.5016,0.4853,-9.7628,0.7889,0,0,0,-1.37,1.5007,-2.8301,176476,2021-05-02 13:34:52:678
2.8768,-11.085,3.5016,0.4853,-9.7628,0.7889,0,0,0,-1.37,1.5007,-2.8301,176476,2021-05-02 13:34:52:678
-2.1978,-9.2393,-0.4606,-0.0266,-9.6666,1.6513,0,0,0,0.6533,-0.3077,0.31,177159,2021-05-02 13:34:53:361
-2.1978,-9.2393,-0.4606,-0.0266,-9.6666,1.6513,0,0,0,0.6533,-0.3077,0.31,177160,2021-05-02 13:34:53:362
4.3202,-9.1567,-1.2508,4.3395,-8.5058,2.2338,0,0,0,0.1138,0.651,0.9033,177598,2021-05-02 13:34:53:800
4.3202,-9.1567,-1.2508,4.3395,-8.5058,2.2338,0,0,0,0.1138,0.651,0.9033,177599,2021-05-02 13:34:53:801
3.195,-10.9235,1.9633,-1.0956,-6.0983,7.6013,0,0,0,0.5015,1.7841,-0.2121,178006,2021-05-02 13:34:54:208
-4.1297,-10.1563,-3.1612,0.4408,-9.7357,-1.0916,-4.4895,-3.1645,-3.4986,-1.82,2.8055,-1.3257,178507,2021-05-02 13:34:54:709
-5.4631,-18.842,-7.2215,0.5888,-9.6939,-1.361,1.5712,1.9854,1.3965,1.3907,-0.6176,1.5204,179007,2021-05-02 13:34:55:209
0.7759,-9.3386,-1.4088,-1.453,-9.6966,-0.187,0.5524,-0.0052,-0.7973,0.0692,0.2158,0.3717,179506,2021-05-02 13:34:55:708
0.2396,-9.4487,-2.875,0.198,-9.5294,-2.3068,-2.277,-1.1866,1.3989,-0.0677,-0.4222,-1.0641,180005,2021-05-02 13:34:56:207
-3.5097,-13.7258,-2.1939,0.625,-9.7409,-0.946,3.4184,-0.6414,-2.1687,0.6212,-0.1639,0.0655,180505,2021-05-02 13:34:56:707
-1.7285,-10.0941,0.0864,-1.3729,-9.7065,-0.2643,0.4421,0.3106,0.2693,-0.0095,-0.0455,0.1771,181009,2021-05-02 13:34:57:211
-0.7445,-9.4032,0.2659,-1.7448,-9.6492,-0.1378,0.1003,-0.3048,-0.1297,0.0058,0.2847,0.1558,181506,2021-05-02 13:34:57:708
-0.5495,-9.626,-0.4367,-0.1448,-9.8012,-0.2918,0,0,0,-0.098,0.2466,0.3781,181922,2021-05-02 13:34:58:124
-0.5495,-9.626,-0.4367,-0.1448,-9.8012,-0.2918,0,0,0,-0.098,0.2466,0.3781,181926,2021-05-02 13:34:58:128
-1.1599,-10.538,-2.4084,-0.7578,-9.5825,-1.942,0,0,0,0.1287,-0.2066,-1.1751,182357,2021-05-02 13:34:58:559
-0.7277,-9.9335,0.8824,-0.5218,-9.7478,0.9377,0,0,0,0.1962,0.1906,0.2182,182648,2021-05-02 13:34:58:850
-9.2231,-14.1186,-8.8268,-3.7625,-7.8591,-4.4999,0,0,0,-0.4059,1.5838,-0.035,183197,2021-05-02 13:34:59:399
-9.2231,-14.1186,-8.8268,-3.7625,-7.8591,-4.4999,0,0,0,-0.4059,1.5838,-0.035,183198,2021-05-02 13:34:59:400
-6.8351,-0.3057,6.6248,-4.6449,-2.2554,8.3372,0,0,0,2.5651,4.337,0.7361,183636,2021-05-02 13:34:59:838
-12.2743,-5.866,13.826,-1.3573,-9.6923,-0.6231,0,0,0,-1.1576,2.457,-3.1616,184184,2021-05-02 13:35:00:386
12.7295,1.7198,-0.0918,1.0973,-9.284,2.962,10.8342,10.107,-10.717,1.9995,-1.9588,1.7327,184600,2021-05-02 13:35:00:802
-5.7206,-5.5403,-6.5608,3.8879,-6.8966,-5.7872,0,0,0,-3.2367,4.7144,-6.2242,185100,2021-05-02 13:35:01:302
-9.3882,-56.3504,2.3261,9.1261,-0.6487,-3.5305,0,0,0,-0.9917,-2.6326,-2.269,185668,2021-05-02 13:35:01:870
-5.1712,4.0875,9.2438,2.6311,-8.985,-2.9185,-19.2516,-36.1373,-1.7643,-2.5984,-4.0394,0.0507,186051,2021-05-02 13:35:02:253
10.1474,1.2182,-2.7829,-2.5651,-9.3529,-1.454,13.9817,17.9969,2.3601,-4.738,2.5853,-4.0999,186554,2021-05-02 13:35:02:756
-1.5404,-20.3456,11.9001,1.0355,-8.632,-4.5372,-16.45,8.6385,5.7612,2.88,2.1546,5.7096,187081,2021-05-02 13:35:03:283
7.3152,-11.2744,5.6719,-3.7142,-8.1337,4.0271,4.3668,-24.3275,-20.1972,-1.9318,-1.0994,3.6173,187554,2021-05-02 13:35:03:756
-0.006,-6.0634,2.1419,-4.1358,-7.3021,5.0739,15.2344,14.5806,-10.763,-1.9171,-3.991,-0.5559,188051,2021-05-02 13:35:04:253
-16.9179,-15.507,-0.9335,2.7834,-9.1009,2.3658,-6.757,20.738,-9.2039,0.6105,-0.6901,-0.3219,188551,2021-05-02 13:35:04:753
-5.9815,-3.3508,2.3237,0.1774,-9.3854,2.8379,3.5494,7.0459,-6.8024,-2.5856,-0.5061,-0.8619,189051,2021-05-02 13:35:05:253
-5.9815,-3.3508,2.3237,0.1774,-9.3854,2.8379,3.5494,7.0459,-6.8024,-2.5856,-0.5061,-0.8619,189451,2021-05-02 13:35:05:653
-5.9815,-3.3508,2.3237,0.1774,-9.3854,2.8379,3.5494,7.0459,-6.8024,-2.5856,-0.5061,-0.8619,189452,2021-05-02 13:35:05:654
-4.9914,-9.6894,-6.2782,-2.1816,-7.2341,-6.2513,0,0,0,0.7561,-1.0281,1.6513,190011,2021-05-02 13:35:06:213
0.0072,-1.8823,-1.3071,2.4691,-8.815,-3.5171,0,0,0,-2.043,0.4346,-1.4341,190405,2021-05-02 13:35:06:607
-8.5026,-8.0423,-3.8782,-4.7809,-8.5616,0.1085,-1.6309,1.0167,-3.2244,0.79,0.2017,1.7307,191168,2021-05-02 13:35:07:370
-8.5026,-8.0423,-3.8782,-4.7809,-8.5616,0.1085,-1.6309,1.0167,-3.2244,0.79,0.2017,1.7307,191168,2021-05-02 13:35:07:370
-2.6177,-6.2001,0.9733,5.5706,-8.067,-0.2485,0,0,0,0.6188,0.1513,0.1155,191598,2021-05-02 13:35:07:800
-2.6177,-6.2001,0.9733,5.5706,-8.067,-0.2485,0,0,0,0.6188,0.1513,0.1155,191598,2021-05-02 13:35:07:800
-7.127,-11.9746,-9.5569,-1.7423,-9.6476,-0.243,0,0,0,0.8321,-0.6612,0.4213,192054,2021-05-02 13:35:08:256
-7.127,-11.9746,-9.5569,-1.7423,-9.6476,-0.243,0,0,0,0.8321,-0.6612,0.4213,192054,2021-05-02 13:35:08:256
-4.4841,-8.6228,-0.4822,-3.1872,-9.0703,1.9345,-0.5346,-1.0407,-1.131,0.9712,-0.1002,0.6249,192412,2021-05-02 13:35:08:614
-6.635,-3.4098,-0.0882,0.3088,-8.9526,-3.9907,-5.4146,5.5786,4.7736,1.5215,-1.0244,0.8538,192911,2021-05-02 13:35:09:113
-6.1792,-6.9111,7.9941,-3.1637,-9.1909,-1.2996,-2.5928,-0.8225,-3.3047,-0.4067,-0.6466,0.7437,193496,2021-05-02 13:35:09:698
-6.1792,-6.9111,7.9941,-3.1637,-9.1909,-1.2996,-2.5928,-0.8225,-3.3047,-0.4067,-0.6466,0.7437,193497,2021-05-02 13:35:09:699
-2.9973,-7.6472,1.7288,-3.5734,-9.0515,-1.2135,0,0,0,0.7559,-1.1389,0.1329,193910,2021-05-02 13:35:10:112
-7.6226,-12.0739,-0.3015,-2.8815,-9.3732,-0.0998,2.2111,-2.1924,-1.1341,-1.479,2.3087,-2.4851,194411,2021-05-02 13:35:10:613
-7.7818,-7.9047,5.284,-1.3225,-9.5205,-1.9447,2.3861,-7.5273,-4.328,-0.3263,0.1243,1.0548,194910,2021-05-02 13:35:11:112
-2.0288,-7.87,-2.857,-3.7982,-9.0158,0.677,3.2197,-1.069,-0.6452,0.346,-5.00E-04,0.6102,195410,2021-05-02 13:35:11:612
-1.9905,-5.0689,0.3939,-0.7815,-9.215,-3.2625,-2.2224,4.0727,3.3683,2.0288,-0.1527,1.9358,195910,2021-05-02 13:35:12:112
-2.3785,-9.1974,0.5856,-3.1556,-9.2802,-0.3016,-1.613,1.2152,-2.0615,0.3825,0.3693,0.5154,196410,2021-05-02 13:35:12:612
-3.1493,-11.26,-2.808,-1.7096,-9.3592,-2.3774,-3.2295,0.4987,0.9439,-0.1988,0.0421,-1.5239,197248,2021-05-02 13:35:13:450
-3.1493,-11.26,-2.808,-1.7096,-9.3592,-2.3774,-3.2295,0.4987,0.9439,-0.1988,0.0421,-1.5239,197248,2021-05-02 13:35:13:450
-2.8896,-9.6308,1.5179,-3.8113,-9.0203,-0.5287,0,0,0,0.0846,-0.0341,-2.1045,197682,2021-05-02 13:35:13:884
-2.9231,-9.4283,0.9781,-3.0215,-9.3255,0.2769,0,0,0,0.2874,1.081,0.3415,197791,2021-05-02 13:35:13:993
-2.4335,-9.2237,2.3859,1.199,-9.6064,-1.5655,0,0,0,-0.1909,-0.3752,-0.3082,198454,2021-05-02 13:35:14:656
-2.6979,-7.2485,-0.4427,-2.7399,-9.4064,-0.4268,0,0,0,-0.0501,-0.2152,-0.0533,198852,2021-05-02 13:35:15:054
7.3116,-9.5157,-4.0098,-5.479,-7.7524,-2.46,0,0,0,-0.0936,-0.0139,0.5922,199274,2021-05-02 13:35:15:476
-1.9941,-9.2249,-0.3697,-1.4407,-9.5788,-1.53,-1.6565,2.0327,2.3742,-0.0199,0.4232,-0.0272,199847,2021-05-02 13:35:16:049
0.0179,-8.6192,-1.5559,-0.402,-9.5259,-2.295,0.1564,-0.7393,-0.1036,-0.6703,-0.8979,0.6538,200273,2021-05-02 13:35:16:475
-4.3343,-12.5743,-2.7745,-2.9364,-9.3556,-0.1426,-3.8088,-0.2782,-1.2773,1.1505,-0.3237,0.1655,200842,2021-05-02 13:35:17:044
-2.2744,-9.2345,1.1171,-2.0516,-9.5421,-0.9542,-0.6239,0.4254,1.2746,-0.7367,-0.4849,-0.1242,201274,2021-05-02 13:35:17:476
-0.8438,-9.1938,-2.8032,-0.5807,-9.2059,-3.3293,-0.3588,2.4448,1.8279,-0.511,0.5989,0.2301,201774,2021-05-02 13:35:17:976
1.9131,-13.1943,0.5976,0.9866,-8.6363,-4.5399,7.9142,-2.2631,0.2532,-0.7915,-2.305,0.2329,202274,2021-05-02 13:35:18:476
-0.1376,-3.4229,-6.3574,-2.5578,-8.3286,-4.5015,4.492,-4.4566,5.6001,-0.3496,-3.9656,0.9806,202834,2021-05-02 13:35:19:036
7.6863,-7.5395,-3.9811,1.9089,-9.6115,-0.3803,0,0,0,0.1355,1.4695,-4.4758,203280,2021-05-02 13:35:19:482
7.6863,-7.5395,-3.9811,1.9089,-9.6115,-0.3803,0,0,0,0.1355,1.4695,-4.4758,203281,2021-05-02 13:35:19:483
-1.4758,-27.2764,10.0543,3.5171,-4.6966,-7.8577,0,0,0,-0.029,5.856,-2.4739,203729,2021-05-02 13:35:19:931
-2.115,-12.1014,6.2955,-1.5666,-9.3336,2.5691,0,0,0,-1.7408,-0.5773,-1.6432,203908,2021-05-02 13:35:20:110
-0.7205,5.1494,2.1275,2.7587,-9.3515,1.0534,0,0,0,3.403,1.8962,0.4363,204482,2021-05-02 13:35:20:684
-6.6087,-7.2676,-11.3647,-0.3479,-6.6819,-7.1694,0,0,0,0.6906,3.5655,1.5534,204665,2021-05-02 13:35:20:867
2.3871,8.4329,4.7465,-5.7646,-0.8003,7.893,0,0,0,0.3308,0.2016,1.0155,205243,2021-05-02 13:35:21:445
2.3871,8.4329,4.7465,-5.7646,-0.8003,7.893,0,0,0,0.3308,0.2016,1.0155,205244,2021-05-02 13:35:21:446
-6.184,-12.8375,4.4581,-2.7006,-9.0593,-2.609,0,0,0,0.9564,0.1245,2.0508,205691,2021-05-02 13:35:21:893
2.6862,2.1589,-0.7935,9.6426,-0.5314,-1.7055,0,0,0,-1.7948,1.6441,-1.6966,206142,2021-05-02 13:35:22:344
-11.4473,-16.6035,17.7141,-2.465,-8.0852,-4.9723,0,0,0,-0.3705,2.3507,-0.1142,206525,2021-05-02 13:35:22:727
1.7767,6.612,15.4923,-0.1765,3.4686,9.1711,0,0,0,0.565,-1.1372,-1.7015,206555,2021-05-02 13:35:22:757
-5.383,-15.1923,2.8469,-2.9443,-9.1468,1.959,0,0,0,-1.5439,-2.358,-1.3768,207056,2021-05-02 13:35:23:258
-5.383,-15.1923,2.8469,-2.9443,-9.1468,1.959,0,0,0,-1.5439,-2.358,-1.3768,207059,2021-05-02 13:35:23:261
-5.383,-15.1923,2.8469,-2.9443,-9.1468,1.959,0,0,0,-1.5439,-2.358,-1.3768,207371,2021-05-02 13:35:23:573
-4.3367,-14.2968,2.8217,-1.2615,-9.7226,0.2226,0,0,0,-1.257,1.0279,-2.4959,207543,2021-05-02 13:35:23:745
-2.9351,-9.3529,0.7591,-1.3255,-9.668,-0.9714,0,0,0,0.6278,0.43,0.8941,208137,2021-05-02 13:35:24:339
-2.9351,-9.3529,0.7591,-1.3255,-9.668,-0.9714,0,0,0,0.6278,0.43,0.8941,208138,2021-05-02 13:35:24:340
1.6831,-10.2066,1.299,1.4036,-9.6908,0.5375,0,0,0,0.2393,0.2298,0.6716,208581,2021-05-02 13:35:24:783
0.4705,-8.8071,2.3106,-0.7699,-9.7357,0.8906,0,0,0,0.2599,0.4606,0.2025,208907,2021-05-02 13:35:25:109
-2.7398,-12.3434,-6.7403,-1.5955,-9.0416,-3.446,0,0,0,1.8996,1.6191,-0.1034,209353,2021-05-02 13:35:25:555
-2.5962,-8.2086,-3.1074,-1.9441,-9.5982,0.5148,-0.3251,-0.1275,-0.9908,-0.2642,-0.0719,0.3221,209928,2021-05-02 13:35:26:130
-0.0909,-7.0152,3.061,-1.6557,-9.4724,-1.9243,-5.4161,-2.269,-3.799,0.6154,0.7975,1.3808,210352,2021-05-02 13:35:26:554
-0.9347,-9.2309,-1.3848,-2.747,-9.414,0.0126,0.9287,-0.4679,0.7672,0.5687,0.0447,0.6834,210951,2021-05-02 13:35:27:153
2.0937,-4.3205,-2.2765,1.3318,-9.3929,-2.4841,-4.63,3.3198,2.2971,0.6141,-1.6427,1.7449,211356,2021-05-02 13:35:27:558
-2.3318,-9.1161,-0.5384,-3.1406,-9.2519,0.8426,1.2154,0.7749,-4.2949,-0.1211,0.5429,0.4371,211853,2021-05-02 13:35:28:055
-6.7549,-4.3959,-0.2154,1.0085,-9.4455,-2.4362,-1.5487,-1.2454,4.3575,-1.4897,-2.0708,-2.1926,212353,2021-05-02 13:35:28:555
-6.4663,-8.5738,-6.0784,-1.835,-9.5989,-0.8148,2.0552,6.0315,9.4019,0.029,-1.2095,1.2612,212852,2021-05-02 13:35:29:054
-2.0109,-7.7321,-0.8007,0.1281,-9.5371,-2.2797,1.4153,0.4586,1.3363,-1.3584,-0.3696,-0.3613,213353,2021-05-02 13:35:29:555
-1.7776,-5.1407,1.488,-1.3643,-9.5811,-1.5848,1.6441,-1.3627,-1.2472,0.3735,1.1047,0.2538,213853,2021-05-02 13:35:30:055
-1.0005,-10.6134,-0.7816,-2.3388,-9.5143,0.4225,3.5296,-0.885,-2.2302,0.7843,0.0367,0.538,214353,2021-05-02 13:35:30:555
-1.4961,-7.876,-3.2701,0.7333,-9.2686,-3.1186,-1.0376,0.1675,-0.4089,-0.3693,-0.1822,-1.2498,214915,2021-05-02 13:35:31:117
2.5834,-4.9729,1.3708,-3.7296,-8.9698,-1.3424,3.2231,-5.0676,2.1873,1.4807,0.242,1.7146,215353,2021-05-02 13:35:31:555
-5.9408,-21.2276,14.2678,1.4068,-8.8441,-3.9967,-5.6119,10.0994,10.4847,2.4173,2.3209,2.3272,215853,2021-05-02 13:35:32:055
-10.8583,5.0151,-55.337,-2.2237,-3.9822,-8.6814,-30.4458,-5.3457,-1.9873,-9.7006,-6.5545,-0.4496,216355,2021-05-02 13:35:32:557
-8.7622,-19.2527,19.9657,-4.1907,-6.4976,-6.0324,-1.671,-11.7578,3.2568,2.9921,1.3232,3.4236,216853,2021-05-02 13:35:33:055
-0.7887,-9.8677,3.754,0.5635,-8.9969,-3.8611,-11.0423,-36.0542,-2.7468,-0.7904,1.3723,-1.3671,217353,2021-05-02 13:35:33:555
4.1599,-2.161,-4.8694,-2.0492,-9.4366,-1.7093,-0.9072,-20.5697,5.3605,-0.4543,0.399,0.2321,217853,2021-05-02 13:35:34:055
-7.2215,-6.4573,0.9266,1.1724,-9.351,-2.7119,1.3706,-0.7511,2.7842,-0.0588,-0.7031,-0.3746,218454,2021-05-02 13:35:34:656
-7.2215,-6.4573,0.9266,1.1724,-9.351,-2.7119,1.3706,-0.7511,2.7842,-0.0588,-0.7031,-0.3746,218454,2021-05-02 13:35:34:656
-4.8156,2.4404,0.1008,-8.049,-5.1653,2.1688,0,0,0,0.2935,-0.1432,1.8093,218923,2021-05-02 13:35:35:125
-4.8156,2.4404,0.1008,-8.049,-5.1653,2.1688,0,0,0,0.2935,-0.1432,1.8093,218924,2021-05-02 13:35:35:126
-11.385,-20.7981,-2.1269,-3.1595,-8.9139,2.5943,0,0,0,1.512,0.4916,0.5817,219510,2021-05-02 13:35:35:712
-11.385,-20.7981,-2.1269,-3.1595,-8.9139,2.5943,0,0,0,1.512,0.4916,0.5817,219511,2021-05-02 13:35:35:713
-1.1288,-3.5545,2.313,0.2774,-7.9034,5.7991,0,0,0,0.2393,0.2396,0.0681,219991,2021-05-02 13:35:36:193
2.3261,-6.8716,-1.162,3.0777,-9.1665,-1.6348,0,0,0,0.6706,-0.6322,0.6034,220368,2021-05-02 13:35:36:570
0.3114,-9.7983,0.9242,-0.0194,-9.8057,-0.1363,0.7951,0.4582,-0.2628,-0.0163,0.1796,-0.0629,220915,2021-05-02 13:35:37:117
0.3114,-9.7983,0.9242,-0.0194,-9.8057,-0.1363,0.7951,0.4582,-0.2628,-0.0163,0.1796,-0.0629,220915,2021-05-02 13:35:37:117
-0.1029,-9.6488,0.1558,0.3859,-9.799,0.0143,0,0,0,-0.0628,-1.1267,-0.0531,221373,2021-05-02 13:35:37:575
-0.1029,-9.6488,0.1558,0.3859,-9.799,0.0143,0,0,0,-0.0628,-1.1267,-0.0531,221374,2021-05-02 13:35:37:576
-0.3697,-8.6037,-2.2956,-0.3619,-9.471,-2.5178,0,0,0,1.3778,-0.385,0.9454,221842,2021-05-02 13:35:38:044
-0.3697,-8.6037,-2.2956,-0.3619,-9.471,-2.5178,0,0,0,1.3778,-0.385,0.9454,221843,2021-05-02 13:35:38:045
-0.4403,-9.8031,-3.8734,0.1586,-9.255,-3.2387,0,0,0,-0.4571,0.5058,-0.1559,222262,2021-05-02 13:35:38:464
-0.4403,-9.8031,-3.8734,0.1586,-9.255,-3.2387,0,0,0,-0.4571,0.5058,-0.1559,222262,2021-05-02 13:35:38:464
-0.0491,-7.9178,0.1546,-0.9594,-9.6328,-1.5684,0,0,0,2.6656,-1.8935,0.4404,222668,2021-05-02 13:35:38:870
-1.8242,-18.8635,-14.1117,-0.9728,-9.6825,1.2137,-0.5678,-1.0358,-3.7599,1.1182,-0.0617,-0.1419,223449,2021-05-02 13:35:39:651
-1.8242,-18.8635,-14.1117,-0.9728,-9.6825,1.2137,-0.5678,-1.0358,-3.7599,1.1182,-0.0617,-0.1419,223450,2021-05-02 13:35:39:652
-1.8242,-18.8635,-14.1117,-0.9728,-9.6825,1.2137,-0.5678,-1.0358,-3.7599,1.1182,-0.0617,-0.1419,223450,2021-05-02 13:35:39:652
1.2763,-10.0519,0.6574,0.9697,-9.7561,0.2191,0,0,0,-1.113,1.1033,-0.2595,223849,2021-05-02 13:35:40:051
1.2763,-10.0519,0.6574,0.9697,-9.7561,0.2191,0,0,0,-1.113,1.1033,-0.2595,223849,2021-05-02 13:35:40:051
1.2763,-10.0519,0.6574,0.9697,-9.7561,0.2191,0,0,0,-0.6483,-0.1926,-0.1747,224276,2021-05-02 13:35:40:478
1.2763,-10.0519,0.6574,0.9697,-9.7561,0.2191,0,0,0,-0.6483,-0.1926,-0.1747,224277,2021-05-02 13:35:40:479
4.2736,0.6915,-6.1932,3.7138,-8.9321,-1.6113,0,0,0,1.2779,-1.1191,0.1376,224683,2021-05-02 13:35:40:885
6.6329,-36.3057,-0.9993,0.1031,-9.6266,-1.8678,-5.2324,14.5464,2.897,0.8098,0.0057,0.5679,225180,2021-05-02 13:35:41:382
-10.2742,-20.8376,1.177,1.6427,-9.5427,-1.5519,-6.3981,10.4357,8.0016,2.6389,-1.0772,0.0076,225679,2021-05-02 13:35:41:881
-18.4523,-8.624,6.536,2.9715,-8.6881,-3.4435,-9.6699,8.3486,-9.1218,0.079,4.5725,3.6529,226180,2021-05-02 13:35:42:382
0.2527,4.0301,-5.6186,5.246,-7.4295,-3.6678,-49.3455,-14.4789,17.0774,-0.7416,-11.494,5.2032,226680,2021-05-02 13:35:42:882
-1.8015,-4.4198,2.3166,-3.3184,-9.1977,-0.7488,3.901,4.2942,-3.561,-0.9325,-1.2588,-1.8901,227180,2021-05-02 13:35:43:382
-4.9161,-15.6075,8.5902,-0.3553,-9.7717,-0.7468,-5.7367,-9.0947,2.4209,1.5766,-1.7466,1.2829,227679,2021-05-02 13:35:43:881
-1.8075,-4.3887,0.807,-0.1369,-9.7573,-0.9726,-9.5365,-16.0604,-2.0279,-0.385,-1.1464,-0.1626,228180,2021-05-02 13:35:44:382
-0.4068,-7.9167,-10.1064,1.4485,-7.8084,-5.7533,0,0,0,0.0057,-0.6148,0.1991,228976,2021-05-02 13:35:45:178
-4.2254,-4.4031,-0.6185,-7.8151,-5.822,-1.0949,0,0,0,-0.242,0.5957,0.5226,229136,2021-05-02 13:35:45:338
2.441,-9.2919,1.6199,-1.6522,-9.653,0.5097,0.6975,-2.7313,-4.8214,0.3528,0.7962,0.4108,229639,2021-05-02 13:35:45:841
1.8341,-9.1878,-0.032,0.6571,-9.766,-0.6031,0,0,0,0.6606,-0.399,0.9025,230138,2021-05-02 13:35:46:340
-8.0692,-8.5176,-10.2021,-0.3656,-9.7975,0.2159,2.4583,0.1655,1.5455,0.6866,-2.0879,0.5409,230640,2021-05-02 13:35:46:842
1.9681,-13.308,-4.0819,-0.9707,-9.7413,0.5789,6.459,-1.319,2.1152,-0.1628,-0.383,0.9312,231233,2021-05-02 13:35:47:435
3.894,-13.7079,-10.0908,-3.8452,-8.9413,-1.1991,0.4616,1.2733,-0.9845,0.9157,0.1025,-0.2219,231640,2021-05-02 13:35:47:842
1.9813,-8.1751,-1.975,-0.7664,-9.7748,0.1885,3.4572,0.1282,-0.9889,-0.0667,-0.0618,0.4795,232137,2021-05-02 13:35:48:339
-1.5882,-6.4167,-2.237,2.8558,-8.6358,-3.6657,-4.1765,2.1978,1.5466,-0.5406,-0.7449,-1.2348,232640,2021-05-02 13:35:48:842
7.1166,-10.2987,-1.8685,0.9981,-9.6233,-1.6018,-0.1016,3.0137,2.4391,1.0404,1.3623,-0.6328,233231,2021-05-02 13:35:49:433
-4.3822,-14.4894,-7.6837,-1.0965,-9.5842,-1.7638,0,0,0,-0.104,-0.0501,0.3369,233672,2021-05-02 13:35:49:874
-4.3822,-14.4894,-7.6837,-1.0965,-9.5842,-1.7638,0,0,0,-0.104,-0.0501,0.3369,233673,2021-05-02 13:35:49:875
3.0144,-9.1424,0.2049,3.5053,-9.1173,0.8707,0,0,0,-0.1715,-0.1139,0.3489,234087,2021-05-02 13:35:50:289
3.0144,-9.1424,0.2049,3.5053,-9.1173,0.8707,0,0,0,-0.1715,-0.1139,0.3489,234088,2021-05-02 13:35:50:290
-1.0077,-5.3213,3.8919,0.0065,-7.7144,6.0546,0,0,0,0.6457,1.7672,-0.0527,234542,2021-05-02 13:35:50:744
-1.0077,-5.3213,3.8919,0.0065,-7.7144,6.0546,0,0,0,0.6457,1.7672,-0.0527,234543,2021-05-02 13:35:50:745
-0.839,-7.13,-2.589,0.0749,-9.376,-2.8731,0,0,0,1.3865,0.2376,1.5719,234985,2021-05-02 13:35:51:187
-0.839,-7.13,-2.589,0.0749,-9.376,-2.8731,0,0,0,1.3865,0.2376,1.5719,234986,2021-05-02 13:35:51:188
-4.5141,-11.8167,-1.2568,-1.3132,-9.7005,-0.5889,0,0,0,-1.081,1.8452,0.0469,235569,2021-05-02 13:35:51:771
-4.5141,-11.8167,-1.2568,-1.3132,-9.7005,-0.5889,0,0,0,-1.081,1.8452,0.0469,235570,2021-05-02 13:35:51:772
1.9525,-9.6523,-0.0679,2.0327,-9.5923,-0.1613,0,0,0,-0.4949,-0.2445,-0.1136,236000,2021-05-02 13:35:52:202
1.9525,-9.6523,-0.0679,2.0327,-9.5923,-0.1613,0,0,0,-0.4949,-0.2445,-0.1136,236001,2021-05-02 13:35:52:203
5.2672,-6.5195,3.0706,5.5548,-8.0488,0.7295,0,0,0,-0.2646,-0.2307,-0.6495,236470,2021-05-02 13:35:52:672
5.2672,-6.5195,3.0706,5.5548,-8.0488,0.7295,0,0,0,-0.2646,-0.2307,-0.6495,236471,2021-05-02 13:35:52:673
0.801,-7.1288,-2.7087,1.2304,-9.2469,-3.0252,0,0,0,1.7789,-0.4247,0.9624,236896,2021-05-02 13:35:53:098
0.801,-7.1288,-2.7087,1.2304,-9.2469,-3.0252,0,0,0,1.7789,-0.4247,0.9624,236896,2021-05-02 13:35:53:098
0.3197,-9.979,0.935,-0.0646,-9.7843,0.6584,0,0,0,-0.6409,-0.8275,-0.237,237467,2021-05-02 13:35:53:669
0.3197,-9.979,0.935,-0.0646,-9.7843,0.6584,0,0,0,-0.6409,-0.8275,-0.237,237468,2021-05-02 13:35:53:670
17.8122,-11.6895,5.0004,3.8771,-9.0065,0.1468,0,0,0,1.4132,1.0688,0.9525,237873,2021-05-02 13:35:54:075
12.2614,-24.0909,-1.6839,-1.2573,-9.4611,2.2532,6.6491,-12.0694,-0.4373,3.8584,0.3624,2.1685,238405,2021-05-02 13:35:54:607
12.7881,-20.8687,-5.3985,-4.358,-7.4458,4.6625,5.1906,-14.4977,13.2902,4.0227,1.4627,1.6914,238787,2021-05-02 13:35:54:989
6.3613,2.147,-4.5305,7.1835,2.5884,-6.1537,0,0,0,-0.6347,-0.9515,-0.0901,239284,2021-05-02 13:35:55:486
-9.702,1.7127,-0.2489,6.078,-7.1123,-2.94,-3.1411,-26.2792,3.7482,0.1037,-6.0856,-3.5386,239787,2021-05-02 13:35:55:989
11.1948,-32.0444,-18.4858,3.7029,-7.9228,-4.4372,0,0,0,0.7749,-1.4265,5.3035,240283,2021-05-02 13:35:56:485
1.4557,-5.6136,-7.4755,-3.2392,-8.9067,-2.5196,12.4752,5.1143,-4.1323,1.0705,-0.2295,1.0985,240783,2021-05-02 13:35:56:985
3.3254,-11.9949,-2.9145,0.9029,-9.6969,-1.1516,-8.7672,8.47,-1.4669,-0.766,-1.1044,-0.5163,241284,2021-05-02 13:35:57:486
4.9068,-4.9633,-8.7108,-0.429,-9.5106,2.3526,1.6686,6.8984,-8.1402,0.5583,-0.6391,-0.336,241783,2021-05-02 13:35:57:985
4.7752,-9.5169,-15.1567,1.3739,-9.6297,-1.2458,-3.4769,15.1962,4.6845,0.1622,0.3983,0.6881,242283,2021-05-02 13:35:58:485
-2.5268,-4.5482,-0.0141,1.4221,-9.6879,-0.5408,-15.8446,-11.4215,-1.7432,-1.1417,1.1745,-0.6322,242783,2021-05-02 13:35:58:985
-0.4965,-10.0256,-3.8877,-0.2683,-9.7847,-0.5979,-4.0012,-5.0425,3.3285,0.8859,-0.3178,0.8396,243284,2021-05-02 13:35:59:486
-6.2952,-20.773,-7.5544,1.4005,-9.617,-1.3125,-6.9715,9.7156,2.1823,0.9175,-0.1315,1.1024,243783,2021-05-02 13:35:59:985
1.8221,-17.6462,0.358,-0.7627,-9.7769,-0.0397,1.0928,-3.185,-2.4107,-1.8347,0.6803,-3.0565,244283,2021-05-02 13:36:00:485
-4.9735,-9.3135,3.2934,-1.8554,-9.5273,-1.3991,-1.3799,-4.536,2.8134,0.5492,-0.9737,0.6872,244784,2021-05-02 13:36:00:986
4.1192,-13.0807,2.435,-2.1639,-9.511,-1.0145,2.8335,-2.4871,-1.0992,-2.3412,0.9748,-2.192,245284,2021-05-02 13:36:01:486
-3.3876,-6.498,-9.5916,-1.2411,-9.3992,-2.5071,1.6067,1.7543,-0.4881,1.293,-1.3223,1.0832,245784,2021-05-02 13:36:01:986
0.0347,-7.9406,-1.9223,-2.3848,-9.4706,0.8895,0.8701,-0.2247,-0.6925,0.5394,0.1211,0.6739,246283,2021-05-02 13:36:02:485
-3.4092,-3.8058,-1.3418,1.5292,-8.9063,-3.8093,-2.7534,-0.5829,3.086,2.1937,0.0852,1.9695,246787,2021-05-02 13:36:02:989
0.5794,-10.3585,0.0458,-1.5052,-9.6892,-0.156,-1.0639,-0.1167,-2.965,0.2717,1.0965,-0.0677,247283,2021-05-02 13:36:03:485
-3.2486,-12.9754,-2.9375,-2.1834,-9.5305,0.7569,1.7467,0.041,-1.6994,0.1952,-0.2515,-0.1785,247883,2021-05-02 13:36:04:085
-3.2486,-12.9754,-2.9375,-2.1834,-9.5305,0.7569,1.7467,0.041,-1.6994,0.1952,-0.2515,-0.1785,247887,2021-05-02 13:36:04:089
-1.2138,-12.4343,-3.2868,-1.96,-9.5482,-1.0777,0,0,0,-1.1403,0.5766,-0.3161,248446,2021-05-02 13:36:04:648
-1.2138,-12.4343,-3.2868,-1.96,-9.5482,-1.0777,0,0,0,-1.1403,0.5766,-0.3161,248447,2021-05-02 13:36:04:649
-1.3238,-6.6141,-1.8936,-2.7541,-8.8479,-3.2094,0,0,0,2.2525,-0.9961,0.2527,248912,2021-05-02 13:36:05:114
-1.3238,-6.6141,-1.8936,-2.7541,-8.8479,-3.2094,0,0,0,2.2525,-0.9961,0.2527,248913,2021-05-02 13:36:05:115
-1.611,-10.593,-0.7983,-1.0586,-9.7209,-0.7442,-0.934,-1.291,0.4762,-0.912,0.2839,0.0278,249300,2021-05-02 13:36:05:502
-5.2083,-8.7162,-6.5058,-0.3634,-9.7493,-0.9947,-0.3087,-0.1284,-0.3918,-0.0476,-0.8359,-1.4225,249977,2021-05-02 13:36:06:179
-5.2083,-8.7162,-6.5058,-0.3634,-9.7493,-0.9947,-0.3087,-0.1284,-0.3918,-0.0476,-0.8359,-1.4225,249978,2021-05-02 13:36:06:180
-0.1914,-9.8593,1.3313,-2.0268,-9.5915,-0.2577,0,0,0,-0.0174,0.5588,0.3112,250270,2021-05-02 13:36:06:472
-2.1616,-10.8864,0.1391,-1.327,-9.6221,1.3506,0,0,0,1.2729,-0.2735,0.1061,250779,2021-05-02 13:36:06:981
-2.1616,-10.8864,0.1391,-1.327,-9.6221,1.3506,0,0,0,1.2729,-0.2735,0.1061,250780,2021-05-02 13:36:06:982
0.0697,-10.9774,-1.5404,1.4351,-9.659,-0.9027,0,0,0,0.3274,1.3466,-0.0521,251192,2021-05-02 13:36:07:394
0.0697,-10.9774,-1.5404,1.4351,-9.659,-0.9027,0,0,0,0.3274,1.3466,-0.0521,251193,2021-05-02 13:36:07:395
-1.6217,-9.2572,1.4306,-0.7438,-9.7157,1.1055,0,0,0,-0.7826,-0.3596,-0.3821,251566,2021-05-02 13:36:07:768
-0.8964,-10.1061,-5.9839,-1.084,-8.1519,-5.3424,0,0,0,-0.3149,0.9338,-0.1035,252065,2021-05-02 13:36:08:267
0.6299,-13.0029,-2.6285,1.8665,-9.5541,-1.1853,0,0,0,-0.9007,1.0826,-0.5241,252464,2021-05-02 13:36:08:666
0.6299,-13.0029,-2.6285,1.8665,-9.5541,-1.1853,0,0,0,-0.9007,1.0826,-0.5241,252464,2021-05-02 13:36:08:666
-0.0694,-7.5431,-0.7636,1.4069,-9.698,0.3746,0,0,0,-0.2921,-0.2014,-0.6518,253030,2021-05-02 13:36:09:232
-0.0694,-7.5431,-0.7636,1.4069,-9.698,0.3746,0,0,0,-0.2921,-0.2014,-0.6518,253031,2021-05-02 13:36:09:233
-2.0779,-8.0303,-2.7769,-2.4315,-9.1454,-2.573,0,0,0,1.8371,-0.6396,0.9706,253465,2021-05-02 13:36:09:667
0.4753,-9.2178,-4.4623,0.0098,-9.3474,-2.966,0,0,0,-0.3436,1.1977,0.4397,253555,2021-05-02 13:36:09:757
1.1456,-9.3876,-0.5898,-0.0017,-9.8003,0.3539,0,0,0,-0.224,-0.8821,0.1173,254337,2021-05-02 13:36:10:539
1.1456,-9.3876,-0.5898,-0.0017,-9.8003,0.3539,0,0,0,-0.224,-0.8821,0.1173,254338,2021-05-02 13:36:10:540
1.4856,-10.0953,0.0039,1.6198,-9.661,-0.46,0,0,0,-0.7235,-1.495,-0.3146,254814,2021-05-02 13:36:11:016
1.4856,-10.0953,0.0039,1.6198,-9.661,-0.46,0,0,0,-0.7235,-1.495,-0.3146,254815,2021-05-02 13:36:11:017
19.7803,-18.7929,-2.1508,-0.7026,-9.1129,-3.5541,0,0,0,0.2036,-2.0984,-3.5231,255214,2021-05-02 13:36:11:416
-8.7215,-3.3954,5.6815,4.3477,-8.4371,-2.4664,-4.2607,-36.9103,-1.1285,-0.9997,-3.1698,-3.7672,255714,2021-05-02 13:36:11:916
3.5255,-6.4095,3.9781,-2.013,-9.5943,-0.2595,5.7051,10.1462,-2.1282,-3.2494,2.1922,-2.8597,256214,2021-05-02 13:36:12:416
-12.4409,-45.985,-25.4982,1.815,-9.6111,-0.7096,1.1943,-0.9734,3.8113,0.6043,2.7836,0.9925,256714,2021-05-02 13:36:12:916
2.4565,-10.7967,-5.9001,3.915,-8.8324,-1.6831,-9.0209,8.6622,6.2644,0.5041,-0.0777,0.9955,257213,2021-05-02 13:36:13:415
11.8822,-50.2932,3.2635,-1.4349,-9.5198,-1.8669,2.6713,15.0355,-0.991,-0.2613,-0.0756,-7.6916,257714,2021-05-02 13:36:13:916
6.5001,4.0576,-2.8618,-3.074,-9.132,1.8239,8.7203,-5.1175,-5.6158,-1.8675,-1.4111,-1.1434,258213,2021-05-02 13:36:14:415
-2.4718,-8.8035,3.2707,-1.0642,-9.7456,-0.2483,7.0008,11.0262,-1.6454,1.0143,1.7117,-5.856,258770,2021-05-02 13:36:14:972
-23.3554,5.4317,17.3898,0.3253,-9.7164,-1.287,0,0,0,0.3679,-2.8436,-0.1987,259157,2021-05-02 13:36:15:359
-17.8083,-1.4907,6.2632,7.4238,-2.388,-5.946,-17.686,-9.1752,18.6704,-0.2602,-1.6885,-6.6216,259656,2021-05-02 13:36:15:858
-27.2854,-7.36,12.0497,8.1904,-4.3896,-3.1337,-5.3504,-22.6378,16.6095,-0.6177,-5.1143,-3.4557,260160,2021-05-02 13:36:16:362
-24.3634,-17.7287,-5.1879,4.032,-7.6876,-4.5623,-9.6692,6.9647,23.3024,2.5051,2.6402,-1.5366,260746,2021-05-02 13:36:16:948
4.7644,13.2915,2.2029,3.7446,-8.7399,-2.4004,-7.6036,7.7143,8.6706,1.6438,2.5301,-0.8717,261159,2021-05-02 13:36:17:361
6.5779,-6.4908,-7.1378,1.3896,-9.6222,-1.2858,-0.0816,1.5968,7.1462,-0.7553,-1.0403,-0.7448,261658,2021-05-02 13:36:17:860
-2.5651,-0.629,-5.688,5.0224,-4.9375,-6.824,4.1316,4.3088,5.0264,0.3172,-0.7967,0.2605,262156,2021-05-02 13:36:18:358
-0.323,-0.0903,0.8644,5.1062,-7.2426,-4.2002,2.3574,-14.2202,-3.1604,1.7492,2.2433,1.5505,262699,2021-05-02 13:36:18:901
-7.1378,-7.9837,2.0004,2.7509,-9.3612,-0.9853,0,0,0,0.2969,3.7544,1.579,263220,2021-05-02 13:36:19:422
7.9618,1.7414,4.6866,6.2092,-0.8836,-7.539,0,0,0,-2.7609,0.5798,-2.6989,263646,2021-05-02 13:36:19:848
11.9886,2.3148,-0.2812,-1.044,-9.6841,1.1398,6.6451,9.5231,-3.0072,1.9784,0.5498,1.9222,264405,2021-05-02 13:36:20:607
1.0845,-4.1411,4.372,8.505,-0.391,-4.8665,0,0,0,1.3965,1.2556,3.2146,264590,2021-05-02 13:36:20:792
-4.5464,-3.2815,4.0977,4.092,-8.2299,-3.4198,-6.5887,5.0288,9.1428,-0.662,-2.7215,-2.7736,265094,2021-05-02 13:36:21:296
-6.4376,-17.6785,7.684,-1.2591,-9.4717,2.207,0,0,0,0.8865,1.6991,1.8663,265591,2021-05-02 13:36:21:793
2.9486,-14.566,-12.1104,-2.207,-9.5388,-0.5583,3.1047,-2.3669,0.379,2.2878,1.0843,1.4447,266090,2021-05-02 13:36:22:292
-22.4207,10.2488,-6.8626,3.8818,-8.8113,-1.861,-12.346,13.3964,5.2093,0.2579,0.3462,0.1454,266591,2021-05-02 13:36:22:793
-6.9511,-0.0473,4.5096,3.3222,-9.1045,-1.4972,6.7152,-40.2018,0.5341,0.1213,-0.2828,-3.4966,267090,2021-05-02 13:36:23:292
-7.4551,4.3531,1.7527,-8.8655,4.1912,-0.0876,0,0,0,-0.0718,-0.5748,0.4812,267590,2021-05-02 13:36:23:792
-12.9245,11.423,10.0962,0.4705,-7.6403,6.1299,0,0,0,-0.0718,-0.5748,0.4812,267961,2021-05-02 13:36:24:163
-8.3599,8.2759,-1.7928,0.4705,-7.6403,6.1299,0,0,0,0.6635,-0.662,0.425,268129,2021-05-02 13:36:24:331
3.8222,-14.2107,-11.5801,0.911,-9.7624,0.1916,0,0,0,1.9761,0.5195,1.8884,268731,2021-05-02 13:36:24:933
14.0187,-32.5038,-0.4726,2.2393,-9.3177,-2.0824,4.6834,9.1292,-2.8044,-3.6862,-1.0365,-1.0071,269129,2021-05-02 13:36:25:331
21.5447,-50.2669,-0.2166,-3.1025,-9.3015,-0.1663,24.1332,-18.5409,-3.9768,1.4692,3.4119,4.3007,269632,2021-05-02 13:36:25:834
8.1497,-38.7515,33.1023,2.918,-9.3022,1.0605,0.8118,0.2446,20.2746,2.2778,-0.7356,-2.5411,270129,2021-05-02 13:36:26:331
-0.0538,-10.7513,2.0327,2.1084,-8.0517,-5.186,-12.4308,-21.3957,-0.8259,-0.837,-0.7388,0.2132,270629,2021-05-02 13:36:26:831
3.3805,-2.665,-2.1867,-0.1445,-9.6182,-1.9078,4.3541,2.5297,-2.6881,1.6241,-0.1926,1.0027,271128,2021-05-02 13:36:27:330
5.0587,-10.2975,-8.7718,2.0688,-8.9583,-3.4116,-6.1645,6.8158,5.7073,0.9664,-1.029,0.9215,271629,2021-05-02 13:36:27:831
1.4318,-7.9167,6.693,1.4543,-8.1675,5.2294,0,0,0,1.331,0.3256,-0.0843,272128,2021-05-02 13:36:28:330
1.4318,-7.9167,6.693,1.4543,-8.1675,5.2294,0,0,0,1.331,0.3256,-0.0843,272578,2021-05-02 13:36:28:780
1.4318,-7.9167,6.693,1.4543,-8.1675,5.2294,0,0,0,1.331,0.3256,-0.0843,272578,2021-05-02 13:36:28:780
-1.6424,-13.1321,-2.0515,-0.8632,-9.7543,-0.5283,0,0,0,-1.5215,-1.534,-1.8278,273044,2021-05-02 13:36:29:246
-1.6424,-13.1321,-2.0515,-0.8632,-9.7543,-0.5283,0,0,0,-1.5215,-1.534,-1.8278,273044,2021-05-02 13:36:29:246
-0.0706,-9.128,-0.7469,0.1718,-9.774,-0.7813,0,0,0,0.6817,0.5921,0.5041,273440,2021-05-02 13:36:29:642
10.8323,-18.3823,-8.2247,1.928,-9.4814,-1.5987,-2.9858,4.8297,-0.8824,0.4597,1.299,0.3135,273940,2021-05-02 13:36:30:142
1.6137,-9.6165,0.8907,0.2687,-9.7684,0.8225,1.4802,0.6091,-0.8072,0.4728,0.1645,0.4868,274444,2021-05-02 13:36:30:646
-2.5926,-4.2452,-1.5751,4.1139,-8.4168,-2.899,0.2962,-2.6559,1.8468,-0.0612,-1.527,-0.6315,274940,2021-05-02 13:36:31:142
2.1787,-9.2178,0.175,1.5646,-9.6729,0.3962,-0.1929,-2.4842,-1.8786,-0.4594,0.7787,0.2961,275442,2021-05-02 13:36:31:644
0.7125,-9.7397,1.1794,1.0864,-9.7405,-0.336,2.3167,-1.8788,-4.2095,-2.592,0.5192,-1.1162,275940,2021-05-02 13:36:32:142
12.1837,-18.0927,-6.9691,2.5157,-9.4408,-0.8445,4.0789,-3.816,-4.2554,0.7892,1.2994,0.3482,276439,2021-05-02 13:36:32:641
0.7328,-10.0244,-0.9526,2.0582,-9.5823,0.3369,-0.2811,-0.0465,0.2828,-0.2167,0.1448,0.2399,276941,2021-05-02 13:36:33:143
2.5187,-10.3059,1.5852,2.0897,-9.5798,0.1759,0.7177,0.1565,-0.8622,-0.0415,0.387,0.2732,277466,2021-05-02 13:36:33:668
0.8871,-16.302,-6.3754,1.939,-9.6114,0.1778,2.2961,-0.7169,-1.2652,1.957,0.4978,0.8538,277940,2021-05-02 13:36:34:142
4.5296,-7.5383,2.2208,2.1747,-9.5557,-0.361,-0.6238,-2.879,-0.8173,-0.653,-0.1742,0.0609,278615,2021-05-02 13:36:34:817
2.502,-8.6695,0.108,2.3078,-9.3334,-1.9317,0,0,0,-1.8232,0.9373,-1.0084,278669,2021-05-02 13:36:34:871
4.2748,-12.2629,-5.3877,4.047,-8.0556,-3.86,0,0,0,1.8996,-1.1487,1.2967,279170,2021-05-02 13:36:35:372
4.2748,-12.2629,-5.3877,4.047,-8.0556,-3.86,0,0,0,1.8996,-1.1487,1.2967,279425,2021-05-02 13:36:35:627
1.0307,-1.1533,-8.7622,-1.0295,-9.7209,0.7845,-2.6563,9.5093,2.4972,-0.0076,-0.7862,0.5666,279995,2021-05-02 13:36:36:197
1.0307,-1.1533,-8.7622,-1.0295,-9.7209,0.7845,-2.6563,9.5093,2.4972,-0.0076,-0.7862,0.5666,279996,2021-05-02 13:36:36:198
-0.0634,-18.2124,6.2919,-0.1919,-9.5772,2.1001,0,0,0,-0.611,1.8991,0.8995,280529,2021-05-02 13:36:36:731
-0.0634,-18.2124,6.2919,-0.1919,-9.5772,2.1001,0,0,0,-0.611,1.8991,0.8995,280530,2021-05-02 13:36:36:732
9.4687,-2.0868,-8.281,6.1299,-5.1972,-5.6199,0,0,0,-1.9539,2.2146,-3.7098,280955,2021-05-02 13:36:37:157
0.3544,-1.7925,0.6443,-5.2194,7.0947,4.3121,0,0,0,4.1496,-1.8945,-0.1052,281044,2021-05-02 13:36:37:246
0.6766,-7.3923,0.3544,0.6816,-9.5915,1.9259,0,0,0,-0.9787,-2.3434,-1.5858,281738,2021-05-02 13:36:37:940
-3.4104,-7.3648,-0.6401,-4.3595,-8.7697,-0.5072,0,0,0,1.3312,-0.4586,0.8482,282061,2021-05-02 13:36:38:263
1.8221,-12.3577,-7.9831,-8.7216,-4.1135,1.784,-1.705,-1.3735,2.843,0.9372,3.8909,2.6949,282511,2021-05-02 13:36:38:713
-22.5894,2.1362,-2.0049,1.9468,-8.9569,-3.4864,0.6054,-3.3993,31.0933,0.1377,1.9197,-5.8954,283045,2021-05-02 13:36:39:247
-1.2532,-9.7074,-0.3147,1.6399,-9.6513,-0.5777,-2.967,1.8361,0.4412,0.5244,-0.9149,0.2605,283513,2021-05-02 13:36:39:715
4.3047,-9.262,-4.7677,-0.7309,-9.7611,-0.5981,5.3501,0.4016,-2.7907,-0.2595,1.9568,0.4419,284052,2021-05-02 13:36:40:254
-1.459,-1.3472,-0.3996,-0.0822,-8.8735,-4.1744,-3.9459,-7.6997,-4.2439,0.3056,3.3566,1.1866,284515,2021-05-02 13:36:40:717
5.9411,-14.1042,-0.3757,-0.1995,-9.7653,0.8775,1.517,0.1213,-1.7575,0.3682,0.6324,0.4204,285012,2021-05-02 13:36:41:214
9.8865,-14.2765,-7.9493,2.0647,-9.088,-3.0521,0.2917,4.0607,1.8123,1.5045,-0.6977,1.8571,285515,2021-05-02 13:36:41:717
-2.8729,-15.5584,-4.2673,1.8224,-9.493,-1.6529,0.1287,-5.5022,-0.1682,0.4412,-0.6684,0.4383,286012,2021-05-02 13:36:42:214
-0.5001,-11.0755,4.0487,-0.3664,-8.6636,4.5802,0,0,0,-0.0432,-0.026,0.7894,286445,2021-05-02 13:36:42:647
-4.1656,-13.6995,-1.5212,-2.1321,-9.5276,-0.9213,0,0,0,-1.661,1.8585,-3.0238,286463,2021-05-02 13:36:42:665
1.3193,-9.565,0.2838,0.9565,-9.6647,-1.3598,0,0,0,-1.661,1.8585,-3.0238,286962,2021-05-02 13:36:43:164
1.3193,-9.565,0.2838,0.9565,-9.6647,-1.3598,0,0,0,-1.661,1.8585,-3.0238,286963,2021-05-02 13:36:43:165
1.2535,-8.3115,-1.6014,1.2683,-9.7171,-0.3747,0,0,0,-2.4897,0.9656,-2.0317,287448,2021-05-02 13:36:43:650
1.2535,-8.3115,-1.6014,1.2683,-9.7171,-0.3747,0,0,0,-2.4897,0.9656,-2.0317,287448,2021-05-02 13:36:43:650
2.5654,-9.1053,-0.3039,2.6308,-9.4445,0.2265,0,0,0,0.3551,0.3599,0.4673,287855,2021-05-02 13:36:44:057
2.5654,-9.1053,-0.3039,2.6308,-9.4445,0.2265,0,0,0,0.3551,0.3599,0.4673,287855,2021-05-02 13:36:44:057
5.4108,-14.3997,-8.4485,3.1321,-7.7974,-5.0557,0,0,0,0.4306,-0.1884,-0.0811,288411,2021-05-02 13:36:44:613
0.6045,-11.522,0.1463,2.5956,-9.4559,-0.1411,0,0,0,-0.6142,-0.3179,-1.63,288463,2021-05-02 13:36:44:665
0.5674,-9.6045,-0.0787,0.8103,-9.7684,-0.3031,0,0,0,0.2023,0.3099,0.0909,288962,2021-05-02 13:36:45:164
-0.3757,-11.3737,-0.0308,0.8684,-9.6915,-1.2214,0.9085,1.0277,0.005,-0.6915,0.0405,-1.14,289463,2021-05-02 13:36:45:665
-6.16,-17.3539,1.0765,2.4694,-9.3537,-1.6064,3.9838,-1.1694,-3.6135,0.4461,0.1535,1.0253,289966,2021-05-02 13:36:46:168
1.0881,-10.0125,-0.0679,0.3012,-9.7981,-0.2772,0.2063,0.0299,-0.2508,-0.0687,0.7753,0.2407,290462,2021-05-02 13:36:46:664
1.1013,-7.6974,-0.7768,2.0715,-8.919,-3.5114,-1.8678,-2.1109,0.8125,0.1884,-0.1758,-0.2567,290962,2021-05-02 13:36:47:164
2.7855,-9.9598,-3.8638,1.3323,-8.7623,-4.1972,1.5363,-1.9119,0.4901,-0.1712,0.2876,0.1715,291462,2021-05-02 13:36:47:664
1.6472,-8.7425,-4.3893,1.1204,-8.7909,-4.1993,0.367,-0.0264,-0.1432,0.0012,0.0936,0.0692,291962,2021-05-02 13:36:48:164
1.0558,-9.3266,-3.8243,1.2166,-8.873,-3.9949,0.9317,-0.2674,0.1468,0.013,-0.0502,-0.1148,292566,2021-05-02 13:36:48:768
2.362,-9.894,-2.1173,2.1353,-8.9611,-3.3629,0.5213,0.0699,0.3009,0.3274,-0.5123,-0.1264,292966,2021-05-02 13:36:49:168
1.2368,-10.1444,0.2671,1.6488,-9.3755,-2.3563,0.1775,-0.1547,1.0775,-0.6643,0.151,0.0229,293463,2021-05-02 13:36:49:665
1.7142,-10.1037,-0.7995,1.252,-9.3549,-2.6624,-1.2455,-0.7588,0.414,1.7773,1.0484,0.8714,293962,2021-05-02 13:36:50:164
1.4246,-9.7804,-0.3278,1.9345,-9.5992,-0.5326,-0.6373,0.8572,0.8586,-0.1361,-0.3706,-0.0101,294463,2021-05-02 13:36:50:665
1.4174,-11.2696,-8.4485,2.0535,-9.1246,-2.9488,-1.4192,-1.1899,-4.0554,-0.5846,0.9056,0.1193,294965,2021-05-02 13:36:51:167
0.3102,-7.8398,-3.1074,0.0659,-9.3108,-3.0781,0,0,0,0.6469,0.6802,0.505,295462,2021-05-02 13:36:51:664
1.0451,-7.451,-1.5488,1.0757,-9.5854,-1.7701,0,0,0,0.1785,-0.9995,-0.1935,295893,2021-05-02 13:36:52:095
0.4753,-2.9692,3.6356,1.23,-9.6428,1.2941,0,0,0,0.1785,-0.9995,-0.1935,296309,2021-05-02 13:36:52:511
0.4753,-2.9692,3.6356,1.23,-9.6428,1.2941,0,0,0,-0.9503,0.0188,0.0658,296714,2021-05-02 13:36:52:916
0.4753,-2.9692,3.6356,1.23,-9.6428,1.2941,0,0,0,-0.9503,0.0188,0.0658,296715,2021-05-02 13:36:52:917
3.2106,-16.6932,-2.3856,3.8177,-8.993,-0.8493,0,0,0,-0.1402,1.5141,1.2095,297127,2021-05-02 13:36:53:329
3.2106,-16.6932,-2.3856,3.8177,-8.993,-0.8493,0,0,0,-0.1402,1.5141,1.2095,297128,2021-05-02 13:36:53:330
3.2106,-16.6932,-2.3856,3.8177,-8.993,-0.8493,0,0,0,-0.1402,1.5141,1.2095,297719,2021-05-02 13:36:53:921
0.6646,-42.0646,-3.16,0.6084,-9.7326,-1.0378,0,0,0,-1.915,0.4769,-3.1591,297800,2021-05-02 13:36:54:002
7.8897,-10.823,19.6582,0.7216,-6.7005,-7.1241,0,0,0,1.2637,1.1947,0.739,298415,2021-05-02 13:36:54:617
7.8897,-10.823,19.6582,0.7216,-6.7005,-7.1241,0,0,0,1.2637,1.1947,0.739,298416,2021-05-02 13:36:54:618
7.8754,-38.1745,-1.8123,5.837,-6.7684,-4.036,2.7244,3.0386,-0.6632,-4.8695,1.1531,-3.9546,298818,2021-05-02 13:36:55:020
-5.595,-32.7254,-0.615,-0.0123,-9.7803,-0.7184,0,0,0,-2.222,0.7755,-1.4505,299586,2021-05-02 13:36:55:788
-5.595,-32.7254,-0.615,-0.0123,-9.7803,-0.7184,0,0,0,-2.222,0.7755,-1.4505,299587,2021-05-02 13:36:55:789
6.9251,-5.7308,8.0169,7.5171,-5.0873,3.7125,0,0,0,0.4528,-0.2633,2.823,300028,2021-05-02 13:36:56:230
3.2285,-16.4432,-4.2494,0.5848,-9.7759,-0.5103,0,0,0,-1.1406,-1.0916,-1.2047,300528,2021-05-02 13:36:56:730
3.2285,-16.4432,-4.2494,0.5848,-9.7759,-0.5103,0,0,0,-1.1406,-1.0916,-1.2047,300539,2021-05-02 13:36:56:741
-8.1063,-21.4481,10.8395,-3.2783,-8.4643,3.712,0,0,0,1.4108,1.7366,3.992,301041,2021-05-02 13:36:57:243
-8.1063,-21.4481,10.8395,-3.2783,-8.4643,3.712,0,0,0,0.5363,-2.0292,-2.347,301427,2021-05-02 13:36:57:629
-2.8442,-11.7697,0.3138,-5.136,-8.2825,1.0918,0,0,0,-1.6975,-0.0429,-1.1751,301826,2021-05-02 13:36:58:028
-5.4224,-10.4303,2.0841,-3.7436,-8.9702,1.3006,0,0,0,-0.8653,-1.1327,-3.5272,302324,2021-05-02 13:36:58:526
3.0132,-11.983,-4.4216,0.3047,-9.1006,-3.641,0,0,0,-0.1388,0.2428,0.5427,303016,2021-05-02 13:36:59:218
3.0132,-11.983,-4.4216,0.3047,-9.1006,-3.641,0,0,0,-0.1388,0.2428,0.5427,303017,2021-05-02 13:36:59:219
1.7683,-13.6217,0.46,0.17,-9.8042,-0.136,0,0,0,-2.123,0.2758,-3.4327,303436,2021-05-02 13:36:59:638
10.1175,-16.9771,-12.0589,4.4009,-8.0863,-3.3784,0,0,0,0.1458,-0.2853,0.7509,303894,2021-05-02 13:37:00:096
0.4382,-9.9491,-4.7785,-0.6106,-9.7756,-0.4843,1.4536,1.0638,5.2839,-0.1381,0.1162,0.9308,304435,2021-05-02 13:37:00:637
0.4382,-9.9491,-4.7785,-0.6106,-9.7756,-0.4843,1.4536,1.0638,5.2839,-0.1381,0.1162,0.9308,304435,2021-05-02 13:37:00:637
2.278,-9.3482,-7.6837,2.4272,-8.1898,-4.8172,0,0,0,0.6438,1.7431,0.0272,304852,2021-05-02 13:37:01:054
2.278,-9.3482,-7.6837,2.4272,-8.1898,-4.8172,0,0,0,0.6438,1.7431,0.0272,304867,2021-05-02 13:37:01:069
0.7292,-13.3762,-3.7717,-2.8424,-9.3377,-0.9474,0,0,0,0.6438,1.7431,0.0272,305367,2021-05-02 13:37:01:569
-1.2879,-12.3721,-5.3148,-2.0859,-8.925,-3.4878,0,0,0,-1.5935,-1.3663,-1.5917,305551,2021-05-02 13:37:01:753
-1.9941,-8.557,-0.14,0.9769,-9.7552,0.229,0,0,0,-2.0955,1.5859,-1.5861,306052,2021-05-02 13:37:02:254
3.0933,-8.2971,-1.0531,0.2634,-9.7293,-1.201,0.414,0.2678,7.0205,0.7049,-1.3214,0.6014,306551,2021-05-02 13:37:02:753
2.6743,-9.6045,3.2827,-0.0433,-9.787,-0.6189,2.6151,-0.2571,-0.7689,-0.5073,1.5743,0.2549,307051,2021-05-02 13:37:03:253
0.9135,-6.7615,3.8273,0.4723,-8.8818,-4.1305,-5.7266,-0.2469,0.4568,-1.268,1.258,0.0166,307551,2021-05-02 13:37:03:753
1.7321,-8.709,1.9131,0.8147,-9.7722,0.106,1.3027,0.4437,1.5266,-0.0573,0.854,0.0027,308052,2021-05-02 13:37:04:254
2.417,-8.3234,1.1518,1.8808,-9.6198,0.3043,0,0,0,0.1358,0.4545,0.133,308832,2021-05-02 13:37:05:034
2.417,-8.3234,1.1518,1.8808,-9.6198,0.3043,0,0,0,0.1358,0.4545,0.133,308833,2021-05-02 13:37:05:035
2.417,-8.3234,1.1518,1.8808,-9.6198,0.3043,0,0,0,0.1358,0.4545,0.133,308833,2021-05-02 13:37:05:035
4.9283,-10.9271,-6.0724,2.9097,-8.7627,-3.3045,0,0,0,-1.899,-0.3297,-0.0594,309272,2021-05-02 13:37:05:474
4.9283,-10.9271,-6.0724,2.9097,-8.7627,-3.3045,0,0,0,-1.899,-0.3297,-0.0594,309272,2021-05-02 13:37:05:474
0.6933,-9.65,1.3337,-0.1224,-9.8059,-0.0031,0,0,0,-0.6619,-0.3923,-0.3396,309679,2021-05-02 13:37:05:881
0.6933,-9.65,1.3337,-0.1224,-9.8059,-0.0031,0,0,0,-0.6619,-0.3923,-0.3396,309680,2021-05-02 13:37:05:882
2.752,-9.4116,-2.8187,1.3205,-9.5409,-1.8434,0,0,0,-1.1893,2.6634,-0.9861,310118,2021-05-02 13:37:06:320
13.2586,-17.8902,19.1507,-2.3027,-4.2347,-8.5402,0,0,0,2.9733,4.7159,0.669,310618,2021-05-02 13:37:06:820
4.0726,-3.3532,-4.0747,-2.5628,-9.1503,-2.4236,8.9672,11.8148,-10.6992,0.3274,-1.6184,-0.257,311161,2021-05-02 13:37:07:363
4.0726,-3.3532,-4.0747,-2.5628,-9.1503,-2.4236,8.9672,11.8148,-10.6992,0.3274,-1.6184,-0.257,311161,2021-05-02 13:37:07:363
0.0215,-6.6488,-3.1193,4.5418,-7.8473,-3.7366,0,0,0,-0.6574,-0.7652,0.4714,311575,2021-05-02 13:37:07:777
3.9275,-9.3338,1.4952,2.1628,-9.5608,-0.288,0,0,0,-0.4836,1.4828,0.2051,311837,2021-05-02 13:37:08:039
2.0028,-10.2078,0.2013,3.185,-9.2586,0.5514,0,0,0,0.5834,2.5362,0.2575,312297,2021-05-02 13:37:08:499
4.5368,-4.4246,-2.7027,2.0521,-9.5202,1.1512,1.4462,2.8301,-1.8624,-0.3248,1.3032,0.109,312863,2021-05-02 13:37:09:065
1.226,-4.9801,7.9439,2.6891,-9.3564,-1.1816,1.9889,1.7237,-2.2823,-2.8572,-0.6305,-2.8591,313298,2021-05-02 13:37:09:500
-37.987,-28.6161,0.7077,-1.3347,-7.1499,-6.5779,-20.5221,-9.5866,5.7935,2.3389,-3.1527,2.5816,313797,2021-05-02 13:37:09:999
-11.6638,-4.9394,-1.5835,0.1751,-7.057,-6.8073,-0.4785,20.5892,-8.3084,-0.7439,-0.8292,-4.9579,314298,2021-05-02 13:37:10:500
0.0613,-10.8601,0.1893,1.4454,-9.4931,1.9907,4.2217,3.3976,-3.0637,0.1381,0.347,0.1252,314797,2021-05-02 13:37:10:999
-0.6942,-9.8198,-3.4137,0.3993,-9.7822,0.5659,0.8786,0.8496,-4.5854,-0.5812,0.5,-0.6881,315297,2021-05-02 13:37:11:499
5.5208,-8.3067,-3.6209,4.4016,-8.5353,-1.9864,0,0,0,-0.462,0.0915,-0.7115,316089,2021-05-02 13:37:12:291
5.5208,-8.3067,-3.6209,4.4016,-8.5353,-1.9864,0,0,0,-0.462,0.0915,-0.7115,316090,2021-05-02 13:37:12:292
5.5208,-8.3067,-3.6209,4.4016,-8.5353,-1.9864,0,0,0,-0.462,0.0915,-0.7115,316090,2021-05-02 13:37:12:292
-0.6129,-3.7089,-0.5539,-0.606,-8.4479,-4.9433,0,0,0,0.5409,1.2568,-0.0672,316502,2021-05-02 13:37:12:704
-0.6129,-3.7089,-0.5539,-0.606,-8.4479,-4.9433,0,0,0,0.5409,1.2568,-0.0672,316503,2021-05-02 13:37:12:705
2.9139,-10.8159,-2.9877,1.5779,-9.5987,-1.2432,0,0,0,-0.6896,-0.7999,-1.2706,316907,2021-05-02 13:37:13:109
2.9139,-10.8159,-2.9877,1.5779,-9.5987,-1.2432,0,0,0,-0.6896,-0.7999,-1.2706,316907,2021-05-02 13:37:13:109
1.3265,-10.9989,-1.0579,0.6261,-9.7639,-0.6667,0,0,0,-2.0334,0.6162,-1.3289,317313,2021-05-02 13:37:13:515
1.3265,-10.9989,-1.0579,0.6261,-9.7639,-0.6667,0,0,0,-2.0334,0.6162,-1.3289,317314,2021-05-02 13:37:13:516
0.8333,-9.5399,-0.8797,1.251,-9.7112,-0.5451,0,0,0,0.2025,0.0337,0.1232,317767,2021-05-02 13:37:13:969
0.8333,-9.5399,-0.8797,1.251,-9.7112,-0.5451,0,0,0,0.2025,0.0337,0.1232,317768,2021-05-02 13:37:13:970
0.3855,-7.5012,-2.2908,3.5981,-8.7363,-2.627,0,0,0,0.5059,0.6107,0.8333,318368,2021-05-02 13:37:14:570
0.3855,-7.5012,-2.2908,3.5981,-8.7363,-2.627,0,0,0,0.5059,0.6107,0.8333,318369,2021-05-02 13:37:14:571
4.7836,-10.0137,4.7536,3.7522,-8.7283,2.4305,0,0,0,-1.625,0.741,-0.6237,318794,2021-05-02 13:37:14:996
4.7836,-10.0137,4.7536,3.7522,-8.7283,2.4305,0,0,0,-1.625,0.741,-0.6237,318795,2021-05-02 13:37:14:997
1.2559,-9.0706,-2.1604,-0.128,-9.7792,-0.7222,0,0,0,-0.6953,-0.1246,-0.5349,319213,2021-05-02 13:37:15:415
-1.4662,-9.1424,-0.2189,0.2262,-9.6143,-1.9197,-1.1199,0.1215,-1.1808,0.6058,1.2997,0.3332,319710,2021-05-02 13:37:15:912
1.3935,-9.7851,-0.9538,1.6285,-9.67,0.094,1.0545,-0.0512,0.91,-0.2056,0.9992,-0.0947,320211,2021-05-02 13:37:16:413
2.3692,-9.0658,-0.3374,1.4721,-9.6501,0.937,0.9049,0.0243,-0.8744,0.0889,0.564,0.1952,320711,2021-05-02 13:37:16:913
1.5215,-9.2285,-2.1389,2.4101,-9.3952,-1.4461,-0.4344,-2.3132,2.1175,-0.9051,-1.3623,-0.8454,321211,2021-05-02 13:37:17:413
2.4709,-8.3569,-3.9954,3.6237,-8.3035,-3.7539,0,0,0,-0.2624,-0.8673,-0.0374,321711,2021-05-02 13:37:17:913
2.7676,-8.5211,-0.6162,2.4136,-8.8691,-3.4181,-0.5417,0.6115,1.1361,0.0791,0.0128,-0.226,322315,2021-05-02 13:37:18:517
2.7676,-8.5211,-0.6162,2.4136,-8.8691,-3.4181,-0.5417,0.6115,1.1361,0.0791,0.0128,-0.226,322316,2021-05-02 13:37:18:518
-1.3693,-8.6456,-0.8055,-1.0829,-9.571,-1.8423,0,0,0,1.1233,0.1449,-0.1765,322766,2021-05-02 13:37:18:968
3.4262,-11.3151,-3.9093,2.2996,-8.8091,-3.6445,0,0,0,1.8333,1.2851,1.3747,323165,2021-05-02 13:37:19:367
1.0953,-58.6319,2.6097,4.4734,-8.6037,-1.4612,3.7442,-12.5518,-1.2107,-1.827,1.4886,-4.6875,323697,2021-05-02 13:37:19:899
8.0312,-36.1681,-4.8012,4.5449,-6.7578,-5.4632,1.2853,-4.2905,0.2995,-0.8469,-2.5695,-1.6908,324086,2021-05-02 13:37:20:288
4.835,-11.8514,-3.0811,-0.34,-9.7851,0.5542,10.6168,-7.0957,-3.4025,1.8568,0.8596,1.7143,324588,2021-05-02 13:37:20:790
4.5574,-21.4684,24.9251,2.8788,-8.9587,-2.7614,-5.4582,6.5795,6.6238,-0.1507,-1.7493,0.5427,325128,2021-05-02 13:37:21:330
11.2199,-8.3904,-10.5781,5.0018,-8.3801,0.962,-11.7738,13.9064,4.1597,2.0952,-1.3223,1.4906,325585,2021-05-02 13:37:21:787
2.8804,-7.2784,0.588,-0.1493,-9.7894,0.5617,-1.9223,-1.7901,0.8039,1.0577,4.6472,-0.4384,326084,2021-05-02 13:37:22:286
2.3883,-18.2782,-1.1465,0.024,-9.6223,1.8921,5.6485,-2.0136,-1.7191,-2.5396,0.5015,-2.0143,326585,2021-05-02 13:37:22:787
0.1774,-3.7974,-3.9452,3.2545,-8.7847,-2.8997,-2.2044,-5.2972,-0.1801,-1.3097,-2.9034,-2.1622,327086,2021-05-02 13:37:23:288
4.4243,-3.746,-2.7888,-3.1602,-7.1281,-5.9476,0,0,0,0.0159,-1.2411,-0.3442,327531,2021-05-02 13:37:23:733
4.4243,-3.746,-2.7888,-3.1602,-7.1281,-5.9476,0,0,0,0.0159,-1.2411,-0.3442,327532,2021-05-02 13:37:23:734
4.2987,-5.7715,-5.4224,5.6164,-6.31,-4.981,0,0,0,1.3903,0.9149,0.3189,328098,2021-05-02 13:37:24:300
4.2987,-5.7715,-5.4224,5.6164,-6.31,-4.981,0,0,0,1.3903,0.9149,0.3189,328098,2021-05-02 13:37:24:300
-11.8615,-26.4446,-29.2161,0.983,-9.3254,-2.8707,0,0,0,1.5048,-0.5959,0.1678,328502,2021-05-02 13:37:24:704
3.7397,-11.3186,-0.3864,2.6327,-9.3812,-1.1097,0,0,0,0.9482,0.3198,0.5724,328782,2021-05-02 13:37:24:984
8.8427,4.692,-1.028,6.3732,-7.2085,-1.895,0,0,0,-3.6377,-1.3028,-2.5755,329304,2021-05-02 13:37:25:506
9.5321,-9.6978,-3.489,6.473,-7.0999,-1.9653,0,0,0,-0.0863,6.2865,-7.8095,329708,2021-05-02 13:37:25:910
-0.2106,-6.2635,-4.1836,-5.9351,-7.7976,0.3771,0,0,0,0.3535,-0.6115,0.1984,330255,2021-05-02 13:37:26:457
-0.2106,-6.2635,-4.1836,-5.9351,-7.7976,0.3771,0,0,0,0.3535,-0.6115,0.1984,330256,2021-05-02 13:37:26:458
2.5104,-11.17,-8.5612,3.6355,-7.3868,-5.3281,0,0,0,1.6139,-2.8719,1.1134,330739,2021-05-02 13:37:26:941
5.3785,-6.3162,-3.7238,5.672,-6.0457,-5.239,0,0,0,1.2287,0.5224,1.2107,330947,2021-05-02 13:37:27:149
8.7541,-13.5727,-1.7545,9.0722,0.9674,-3.5958,0,0,0,-1.9723,1.8003,-4.8251,331523,2021-05-02 13:37:27:725
3.7241,-8.3916,-0.8617,6.8815,-4.9491,-4.9317,-2.5535,4.553,3.2571,-2.1961,-0.2909,-2.9759,331912,2021-05-02 13:37:28:114
5.2696,-4.9645,-2.9841,-0.65,-9.735,0.9892,3.9969,0.552,-2.9999,1.2686,0.4245,2.006,332413,2021-05-02 13:37:28:615
-4.1716,2.4488,1.5757,2.9657,-9.2316,-1.4668,-6.1731,5.4974,2.4688,-0.7694,-1.1783,-1.0569,332911,2021-05-02 13:37:29:113
6.6353,-8.5415,-7.4106,0.4671,-9.6647,1.5956,5.5724,-1.7461,0.2568,-0.1588,1.0734,0.131,333414,2021-05-02 13:37:29:616
13.0074,-22.3481,-0.7062,1.9572,-9.3657,-2.15,-2.3398,2.6519,1.5659,0.4603,0.8253,2.2991,333912,2021-05-02 13:37:30:114
0.746,-9.4917,-2.5699,0.1437,-9.8049,0.1163,0.17,0.7343,2.0942,0.7141,0.0354,0.7005,334414,2021-05-02 13:37:30:616
-3.658,-3.5713,-0.3314,3.3886,-9.1643,-0.8385,-1.9698,0.4947,0.6026,-0.6861,-2.2727,-1.4712,334912,2021-05-02 13:37:31:114
2.4338,-8.6803,1.9418,-0.4663,-9.7945,-0.1419,1.1401,0.2575,-4.0561,-0.8335,0.5632,0.1617,335411,2021-05-02 13:37:31:613
5.4885,-12.0703,-2.6524,1.0126,-9.5785,-1.8432,2.055,-2.4909,-0.3697,-0.2506,-1.2165,-2.0153,335912,2021-05-02 13:37:32:114
2.8119,-12.9323,2.8349,1.7731,-9.6107,-0.8132,-7.2097,-5.9842,-0.3204,-0.6373,-0.2482,1.0536,336412,2021-05-02 13:37:32:614
1.4151,-11.2373,0.3042,-0.2439,-9.7976,-0.3442,4.4237,0.7631,3.1206,0.0606,-0.555,-0.2645,336911,2021-05-02 13:37:33:113
13.7279,-12.1086,-2.6501,2.2251,-9.1876,-2.6089,2.4667,1.9616,1.8057,2.0274,-0.3477,1.636,337411,2021-05-02 13:37:33:613
0.7184,-9.1986,-0.1842,0.2691,-9.7928,-0.4462,0.2929,0.1329,1.1735,-0.0162,0.0939,0.1559,337912,2021-05-02 13:37:34:114
3.76,-12.6413,-1.593,2.0709,-9.2907,-2.3591,-3.7579,-0.4798,2.0612,-0.6611,0.195,-1.6189,338411,2021-05-02 13:37:34:613
-1.3502,-2.8017,9.2342,2.4149,-9.4349,-1.1492,8.2458,-5.7947,-4.4258,-0.1632,0.4453,1.0203,338912,2021-05-02 13:37:35:114
0.6227,-10.5942,-3.105,-0.2737,-9.8028,0.0223,3.3279,1.0356,-0.1238,0.0438,0.4047,0.4419,339412,2021-05-02 13:37:35:614
3.9275,-6.9793,-1.4435,4.16,-8.3593,-2.998,-2.4307,-0.4379,0.7488,-0.0273,0.449,-0.0935,339912,2021-05-02 13:37:36:114
-2.8047,-10.1707,-0.4295,1.5883,-9.6374,-0.8765,-0.2018,1.088,2.5813,-0.0548,0.9549,0.1216,340411,2021-05-02 13:37:36:613
-2.3785,-10.8242,-3.8387,0.2697,-9.8014,-0.1741,1.6408,0.2882,2.4396,-0.518,0.8485,0.2727,340912,2021-05-02 13:37:37:114
1.7432,-9.6332,-0.7241,1.9563,-9.1975,-2.7838,-2.2552,-0.0086,-1.4765,0.2821,1.9943,1.0209,341412,2021-05-02 13:37:37:614
1.124,-6.3497,0.3712,0.6022,-9.7875,0.1133,3.0678,-0.4762,0.9525,1.2791,0.3888,-0.1996,341991,2021-05-02 13:37:38:193
0.1857,-7.317,-7.3986,0.7929,-9.5255,-2.1923,-2.4332,-2.067,-0.3596,0.3161,-0.0945,0.6681,342412,2021-05-02 13:37:38:614
8.6201,-19.8524,-5.9731,-0.1154,-9.1914,-3.4169,2.9782,-0.1148,-1.1613,0.8414,-0.7897,0.8482,342912,2021-05-02 13:37:39:114
3.8438,-9.9467,-0.5073,-0.2969,-9.7855,0.5712,2.2598,-0.3232,-2.5248,-0.7846,-1.8151,0.0701,343415,2021-05-02 13:37:39:617
5.7772,-19.3938,-5.0644,3.7659,-8.2552,-3.7203,1.708,-9.7571,-1.3152,-0.4297,-1.9987,-1.5656,343911,2021-05-02 13:37:40:113
1.0235,3.1549,4.0116,4.6459,-6.972,-5.0968,-5.2419,8.4875,-1.3918,2.7204,0.3184,3.626,344415,2021-05-02 13:37:40:617
3.7445,-5.683,0.8429,-0.7026,-9.7812,0.0735,3.6821,-6.7834,-0.0787,1.5377,0.9512,1.5984,344912,2021-05-02 13:37:41:114
-4.1321,-0.7008,3.7385,3.1344,-7.7465,-5.132,-4.8929,4.3646,6.0092,-0.6812,-2.6445,1.4176,345412,2021-05-02 13:37:41:614
-51.9697,-69.8794,27.8626,3.4208,-5.5447,-7.3297,5.3947,-39.1646,6.47,-0.9413,-1.0589,-9.2224,345911,2021-05-02 13:37:42:113
-1.9068,-6.2779,-4.5209,-1.9436,-6.3474,-7.2183,1.9449,-5.1595,5.474,0.6237,-1.6323,-0.438,346415,2021-05-02 13:37:42:617
-5.9049,-9.5363,-0.0416,-4.2344,-8.8223,-0.639,-17.7627,-8.1786,-5.8506,1.6314,-0.7061,-0.6382,346912,2021-05-02 13:37:43:114
-4.8156,1.1596,4.2341,-1.9152,-9.5321,-1.2813,-22.759,-24.5233,-4.3067,-2.081,-0.6316,-0.9131,347412,2021-05-02 13:37:43:614
5.528,-0.915,-2.0097,-4.7252,-8.5687,0.6481,6.5341,1.5896,-5.0015,0.9454,-0.3438,1.0759,347912,2021-05-02 13:37:44:114
-14.1359,-17.1529,5.0291,-1.5946,-9.625,-0.9936,-11.8833,-4.8086,-0.7427,0.031,0.0341,1.394,348412,2021-05-02 13:37:44:614
-0.1998,-7.8386,-2.5005,-7.6582,-6.125,0.0814,0,0,0,2.1028,-0.3451,1.2567,348912,2021-05-02 13:37:45:114
-2.406,-1.456,5.6312,-1.8151,-9.2219,-2.7987,3.2915,-10.1943,-5.8385,-0.1353,-0.0173,0.8214,349132,2021-05-02 13:37:45:334
-3.0846,-13.2302,-1.6134,-3.6529,-9.0766,0.6648,5.8382,-1.6303,1.6099,-1.5742,0.4227,-0.2912,349629,2021-05-02 13:37:45:831
-0.7983,-12.5228,-1.7115,-2.7877,-9.3018,-1.3693,-0.0867,-2.4022,-1.1581,-1.4482,0.6057,-1.6557,350129,2021-05-02 13:37:46:331
-2.764,-8.9219,-0.9311,-3.3731,-9.0971,-1.4267,0,0,0,-0.7639,-0.3309,-2.0398,350528,2021-05-02 13:37:46:730
-0.7672,-10.2712,0.1295,-1.7716,-9.6453,0.0284,0,0,0,0.7451,0.0698,0.2931,350940,2021-05-02 13:37:47:142
-4.6002,-13.5284,-0.1998,-2.4631,-9.4505,-0.8899,0,0,0,-0.9784,2.0931,-1.0844,350965,2021-05-02 13:37:47:167
-4.6002,-13.5284,-0.1998,-2.4631,-9.4505,-0.8899,0,0,0,-0.9784,2.0931,-1.0844,351534,2021-05-02 13:37:47:736
-4.6002,-13.5284,-0.1998,-2.4631,-9.4505,-0.8899,0,0,0,-0.9784,2.0931,-1.0844,351535,2021-05-02 13:37:47:737
-4.6469,-8.8178,1.6343,-2.7723,-9.2049,-1.9379,0,0,0,0.4077,0.5198,0.1437,351931,2021-05-02 13:37:48:133
-4.6469,-8.8178,1.6343,-2.7723,-9.2049,-1.9379,0,0,0,0.4077,0.5198,0.1437,351931,2021-05-02 13:37:48:133
-2.1894,-6.364,-1.7426,-3.0415,-8.8882,-2.814,0,0,0,0.5925,-0.5608,0.748,352345,2021-05-02 13:37:48:547
-2.1894,-6.364,-1.7426,-3.0415,-8.8882,-2.814,0,0,0,0.5925,-0.5608,0.748,352346,2021-05-02 13:37:48:548
-3.4152,-8.8741,-2.394,-3.3949,-8.8816,-2.4004,0,0,0,-0.3115,0.1863,-0.2025,352727,2021-05-02 13:37:48:929
-3.4152,-8.8741,-2.394,-3.3949,-8.8816,-2.4004,0,0,0,-0.3115,0.1863,-0.2025,352728,2021-05-02 13:37:48:930
-4.5153,-8.0626,-3.245,-4.4735,-8.1479,-3.1257,0,0,0,-0.2361,1.215,0.2419,353163,2021-05-02 13:37:49:365
-4.5153,-8.0626,-3.245,-4.4735,-8.1479,-3.1257,0,0,0,-0.2361,1.215,0.2419,353164,2021-05-02 13:37:49:366
-4.1465,-11.6034,-4.1548,-3.064,-9.1667,-1.6594,0,0,0,0.3767,1.3258,1.1055,353573,2021-05-02 13:37:49:775
-2.4742,-7.9011,-0.8725,-2.0995,-9.5037,-1.2008,-0.4248,0.3278,-1.5266,-2.2734,-0.1179,-0.6371,354073,2021-05-02 13:37:50:275
-2.3605,-10.5847,-1.9893,-3.445,-9.0243,-1.6926,0.0731,0.7566,0.4513,0.0124,0.4471,0.0444,354592,2021-05-02 13:37:50:794
-3.341,-15.2976,-9.0888,-1.2876,-8.6292,-4.4777,-2.3742,4.5788,6.3663,-0.9431,-0.0909,-0.5856,355073,2021-05-02 13:37:51:275
-14.0366,-34.8802,-7.8547,-1.5556,-9.2519,-2.8553,-0.953,-6.1476,-3.1154,-2.2241,1.762,-1.0983,355574,2021-05-02 13:37:51:776
-21.5528,-4.8066,58.2799,-1.2758,-1.8686,9.5421,0,0,0,-3.9827,0.1268,-1.2037,356073,2021-05-02 13:37:52:275
-21.5528,-4.8066,58.2799,-1.2758,-1.8686,9.5421,0,0,0,-3.9827,0.1268,-1.2037,356423,2021-05-02 13:37:52:625
-9.8695,-5.7404,8.7661,-5.4214,-8.1226,-0.8953,-1.4358,8.091,0.3849,-0.0066,-0.7025,-0.3581,356996,2021-05-02 13:37:53:198
7.7629,-1.5817,1.9693,-8.2907,-3.982,3.4026,0,0,0,0.1275,2.1784,0.8888,357420,2021-05-02 13:37:53:622
7.7629,-1.5817,1.9693,-8.2907,-3.982,3.4026,0,0,0,0.1275,2.1784,0.8888,357420,2021-05-02 13:37:53:622
-5.5385,-10.5607,0.4469,-2.896,-9.258,-1.4398,0,0,0,0.2275,-0.2825,0.7364,357871,2021-05-02 13:37:54:073
-5.5385,-10.5607,0.4469,-2.896,-9.258,-1.4398,0,0,0,0.2275,-0.2825,0.7364,357873,2021-05-02 13:37:54:075
-75.7589,-34.0373,26.0001,-5.269,-7.6721,3.0899,0,0,0,-2.1224,-4.1999,-2.2137,358270,2021-05-02 13:37:54:472
-75.7589,-34.0373,26.0001,-5.269,-7.6721,3.0899,0,0,0,-2.1224,-4.1999,-2.2137,358628,2021-05-02 13:37:54:830
4.8278,-8.1607,0.285,1.5085,-9.1592,-3.1628,0,0,0,0.1677,-0.9039,0.5453,359036,2021-05-02 13:37:55:238
4.8278,-8.1607,0.285,1.5085,-9.1592,-3.1628,0,0,0,0.1677,-0.9039,0.5453,359036,2021-05-02 13:37:55:238
-2.1832,-10.0376,-2.3076,-0.2645,-9.748,1.0379,-0.5547,0.0224,-0.5225,1.4929,1.4276,-0.305,359439,2021-05-02 13:37:55:641
-0.1902,-10.0675,-0.9359,-0.8218,-9.7692,0.2384,0,0,0,0.7947,0.0841,0.1103,360220,2021-05-02 13:37:56:422
-0.1902,-10.0675,-0.9359,-0.8218,-9.7692,0.2384,0,0,0,0.7947,0.0841,0.1103,360220,2021-05-02 13:37:56:422
-0.1902,-10.0675,-0.9359,-0.8218,-9.7692,0.2384,0,0,0,0.7947,0.0841,0.1103,360220,2021-05-02 13:37:56:422
-8.6713,-6.163,-7.6561,-3.5968,-7.8571,-4.6368,0,0,0,2.1056,-0.3468,-0.5866,360658,2021-05-02 13:37:56:860
-2.8059,-7.3995,1.3516,-1.1854,-9.3652,2.6567,0,0,0,-0.3108,-0.1516,0.4549,361195,2021-05-02 13:37:57:397
-4.0531,-5.4529,-2.31,-2.6717,-9.4257,-0.4352,-1.3383,3.598,-1.7996,0.6023,-0.9645,0.2851,361624,2021-05-02 13:37:57:826
-1.0822,-8.5307,-3.5527,-1.6155,-8.9791,-3.5967,0,0,0,0.1562,1.0143,1.1902,362491,2021-05-02 13:37:58:693
-1.0822,-8.5307,-3.5527,-1.6155,-8.9791,-3.5967,0,0,0,0.1562,1.0143,1.1902,362492,2021-05-02 13:37:58:694
-1.0822,-8.5307,-3.5527,-1.6155,-8.9791,-3.5967,0,0,0,0.1562,1.0143,1.1902,362492,2021-05-02 13:37:58:694
-5.6417,-5.8481,-1.9211,-5.713,-7.9425,-0.6697,0,0,0,1.4327,1.3396,-0.5452,362895,2021-05-02 13:37:59:097
-5.6417,-5.8481,-1.9211,-5.713,-7.9425,-0.6697,0,0,0,1.4327,1.3396,-0.5452,362895,2021-05-02 13:37:59:097
1.0175,-11.1317,-6.5907,-0.1367,-8.2881,-5.2401,0,0,0,-0.44,1.3851,-0.007,363353,2021-05-02 13:37:59:555
-1.7824,-8.7305,-0.02,-2.1151,-9.5653,0.4494,0,0,0,-0.9322,0.1723,-0.2257,363392,2021-05-02 13:37:59:594
-1.6074,-10.7692,-4.6158,-4.7853,-8.4681,1.2502,0,0,0,-1.3338,0.6571,-0.2581,363892,2021-05-02 13:38:00:094
-1.6074,-10.7692,-4.6158,-4.7853,-8.4681,1.2502,0,0,0,-1.3338,0.6571,-0.2581,363892,2021-05-02 13:38:00:094
-3.5862,-8.1392,1.1088,-2.8672,-9.2908,1.2773,0,0,0,-1.0334,-0.4303,-0.2587,364191,2021-05-02 13:38:00:393
-7.5042,-8.91,-0.4164,-0.7516,-7.9856,-5.6423,0,0,0,-0.4009,0.9267,-0.704,364944,2021-05-02 13:38:01:146
-7.5042,-8.91,-0.4164,-0.7516,-7.9856,-5.6423,0,0,0,-0.4009,0.9267,-0.704,364944,2021-05-02 13:38:01:146
-7.5042,-8.91,-0.4164,-0.7516,-7.9856,-5.6423,0,0,0,-0.4009,0.9267,-0.704,364944,2021-05-02 13:38:01:146
6.3458,-16.5497,5.8705,3.5105,-9.1564,0.085,0,0,0,2.1068,-1.6105,0.4746,365369,2021-05-02 13:38:01:571
6.3458,-16.5497,5.8705,3.5105,-9.1564,0.085,0,0,0,2.1068,-1.6105,0.4746,365369,2021-05-02 13:38:01:571
1.9513,-53.135,21.3724,-9.1006,-3.3459,-1.4676,0,0,0,-0.2905,3.9992,-0.5252,365829,2021-05-02 13:38:02:031
0.419,-13.9376,1.7444,2.759,-9.41,-0.1018,0,0,0,-0.2338,-3.6104,-2.6477,366240,2021-05-02 13:38:02:442
-0.4702,-12.8028,2.3405,2.9344,-9.0826,-2.251,-1.6108,6.1651,2.6455,0.2775,-3.0678,-2.5239,366741,2021-05-02 13:38:02:943
4.3872,0.3012,1.9956,-1.9647,-9.3432,2.2392,9.0653,0.1067,-7.3574,-3.022,-0.077,-2.8178,367239,2021-05-02 13:38:03:441
15.8169,-31.18,16.7495,-2.6321,-9.0862,2.5853,-3.6322,-17.0277,0.6099,2.5178,1.9365,3.9038,367739,2021-05-02 13:38:03:941
-14.5561,6.8109,43.8231,3.5909,-7.7487,-4.8201,-43.5411,30.8838,-6.7231,5.6622,-7.6075,-1.9265,368239,2021-05-02 13:38:04:441
-5.7745,-40.663,-0.9443,2.7684,-9.4062,-0.1738,-11.8184,-29.1979,-9.9311,-3.615,-1.5835,-2.3214,368740,2021-05-02 13:38:04:942
3.8976,-14.6991,3.0718,-0.4301,-9.7617,0.8333,3.1969,-10.9529,-1.3855,0.8317,-2.0286,3.847,369280,2021-05-02 13:38:05:482
2.3273,-4.305,9.2186,-1.5302,-9.6827,-0.2742,-3.6314,17.4664,5.1739,0.0052,2.4949,1.1687,369952,2021-05-02 13:38:06:154
-4.806,0.4184,3.6894,-0.748,-9.7218,-1.0474,-0.7275,9.2933,3.0301,-0.0718,-1.0042,1.3904,370240,2021-05-02 13:38:06:442
2.8899,0.3634,-2.0803,-3.3332,-9.1994,0.6567,9.9156,7.424,-5.5867,0.6018,-0.6667,0.9302,370742,2021-05-02 13:38:06:944
-14.8828,-39.2228,-3.5408,-1.0774,-9.6514,-1.364,0,0,0,-0.4198,1.4902,-1.7919,371464,2021-05-02 13:38:07:666
-14.8828,-39.2228,-3.5408,-1.0774,-9.6514,-1.364,0,0,0,-0.4198,1.4902,-1.7919,371465,2021-05-02 13:38:07:667
4.4686,-7.0929,-1.2688,2.2251,-9.4821,-1.1442,0,0,0,0.7107,-0.5108,1.2402,371641,2021-05-02 13:38:07:843
2.3764,-9.8749,-1.0161,2.2702,-9.3941,-1.6636,0,0,0,-0.13,-2.1416,-0.02,372223,2021-05-02 13:38:08:425
2.3764,-9.8749,-1.0161,2.2702,-9.3941,-1.6636,0,0,0,-0.13,-2.1416,-0.02,372224,2021-05-02 13:38:08:426
-0.2776,-10.9104,-0.7732,-0.498,-9.7577,-0.8419,0,0,0,-0.1431,-1.8489,0.2712,372653,2021-05-02 13:38:08:855
-0.2776,-10.9104,-0.7732,-0.498,-9.7577,-0.8419,0,0,0,-0.1431,-1.8489,0.2712,372654,2021-05-02 13:38:08:856
-3.2844,-0.2973,-1.5595,-7.296,-5.4296,-3.6685,0,0,0,0.7691,-0.168,0.7681,373056,2021-05-02 13:38:09:258
10.0528,-19.0995,-6.5584,4.3751,-8.0615,-3.47,0,0,0,1.1346,0.0677,2.1867,373509,2021-05-02 13:38:09:711
-4.2912,-4.6834,-1.4554,0.7971,-9.7099,-1.1196,-3.0699,2.3729,0.8202,0.7414,-0.1808,0.8673,374092,2021-05-02 13:38:10:294
-2.8119,-4.2069,-1.1788,-5.0242,-8.3589,-1.0278,0,0,0,0.8176,-0.4571,2.4417,374373,2021-05-02 13:38:10:575
-2.5938,-10.3932,-1.3669,1.9736,-9.2708,-2.5155,0,0,0,-1.1812,1.0539,-2.1797,374893,2021-05-02 13:38:11:095
-1.1862,-8.3821,-3.6018,0.7739,-9.7213,-1.033,-2.01,7.4977,5.4431,0.2237,-1.4967,0.9659,375297,2021-05-02 13:38:11:499
-3.1349,-8.6049,-1.9522,1.5129,-9.675,-0.5248,-2.249,-2.3971,-1.8726,-1.3885,1.1942,-1.8974,375800,2021-05-02 13:38:12:002
12.8492,-13.8323,-3.1947,1.7467,-9.5688,-1.2481,8.9116,-3.3454,-1.9092,1.2793,-0.4726,1.9075,376327,2021-05-02 13:38:12:529
-0.1376,-4.7396,-0.5145,-0.4077,-9.741,-1.0572,-0.6069,0.2649,0.8154,-0.3546,0.6052,0.1759,376800,2021-05-02 13:38:13:002
1.4665,-11.8202,-4.57,-0.3838,-9.0735,-3.7006,2.6588,7.8391,4.8245,0.0331,0.0344,-0.4681,377297,2021-05-02 13:38:13:499
6.3123,-0.8097,-6.1322,1.2139,-9.4962,-2.1258,-3.6197,-4.156,3.4267,-1.2397,0.8538,0.1471,377797,2021-05-02 13:38:13:999
1.5179,-16.6418,-5.249,1.9918,-8.8426,-3.7433,6.8755,4.3754,-1.7242,1.0925,-1.1951,1.9695,378296,2021-05-02 13:38:14:498
-2.4311,-8.8322,-8.403,-0.8195,-9.7723,-0.0341,-2.2773,3.4637,-6.5651,0.6105,1.6412,0.7124,378800,2021-05-02 13:38:15:002
-7.558,-6.5052,-3.8052,1.2347,-9.6673,-1.0906,-7.5648,3.5982,-2.8277,-0.131,1.3448,2.572,379297,2021-05-02 13:38:15:499
0.7998,-13.7809,-3.5444,-0.3955,-9.6884,1.4661,6.3774,-4.0163,-1.0068,2.9938,2.9986,0.6738,379797,2021-05-02 13:38:15:999
-0.7696,3.5728,-3.3036,3.7275,-8.7535,-2.3773,-3.5358,-3.9885,2.5207,-0.1422,3.0451,2.6418,380297,2021-05-02 13:38:16:499
-11.1168,-63.8593,5.1559,-1.6805,-9.6288,0.7953,5.8419,9.2519,-3.61,0.2576,1.939,-5.0618,380797,2021-05-02 13:38:16:999
6.7286,0.0918,-6.6661,-4.1514,-8.7461,1.5629,8.9966,7.7675,-7.8744,1.8159,0.1161,0.927,381297,2021-05-02 13:38:17:499
-0.7851,-3.3835,1.5852,2.6924,-9.1969,-2.0831,6.6496,-11.5652,-2.2988,-0.4942,-3.0829,-2.8638,381895,2021-05-02 13:38:18:097
-17.5774,17.2502,7.1731,-5.3845,6.0506,5.5288,0,0,0,0.8778,-4.2727,0.0797,382226,2021-05-02 13:38:18:428
8.5173,-20.549,-5.4511,1.2205,-9.7233,0.3718,13.6058,-13.9873,-4.7614,-1.9132,-5.7666,-0.1144,382750,2021-05-02 13:38:18:952
8.5173,-20.549,-5.4511,1.2205,-9.7233,0.3718,13.6058,-13.9873,-4.7614,-1.9132,-5.7666,-0.1144,382751,2021-05-02 13:38:18:953
9.6796,1.9436,0.8213,9.6868,1.4545,0.4704,0,0,0,-4.6127,2.8525,-1.994,383273,2021-05-02 13:38:19:475
-2.2576,-11.158,-4.3522,-5.5699,-4.9247,-6.3948,0,0,0,0.7712,-0.6307,2.6583,383660,2021-05-02 13:38:19:862
-0.7744,-9.9072,0.9553,-1.5497,-9.5973,-1.2883,4.8323,-1.5476,1.8961,-1.3865,-1.3791,-0.0855,384159,2021-05-02 13:38:20:361
-7.9029,-12.5827,-7.692,0.5353,-6.7864,-7.0589,1.9483,4.2176,2.6788,0.0557,-2.4191,-0.1048,384660,2021-05-02 13:38:20:862
-10.3854,-23.8062,-4.3415,-2.5598,-9.3192,-1.6646,5.6343,0.6517,-3.7874,-0.3208,-0.9896,0.1898,385159,2021-05-02 13:38:21:361
-1.6181,-27.5626,19.8688,-1.2662,-8.836,-4.061,-5.946,3.8865,-1.4719,1.8826,-0.8042,1.8695,385659,2021-05-02 13:38:21:861
1.2057,6.4576,0.9876,1.2444,-9.1157,-3.3951,-3.9154,4.7893,6.0096,-0.1593,-0.2324,1.3733,386159,2021-05-02 13:38:22:361
-5.4464,-34.9484,1.4892,0.4743,-9.6519,-1.6694,-2.2328,-9.4951,-1.7137,-3.3748,0.106,-2.4322,386660,2021-05-02 13:38:22:862
1.3158,6.7436,-2.353,9.2435,3.0176,-1.274,0,0,0,-0.3691,0.3479,1.5059,387160,2021-05-02 13:38:23:362
-9.2638,-10.1563,-9.4696,-1.1135,-9.6907,-1.0102,0.5782,11.9095,1.5788,-0.2088,0.7542,1.6007,387660,2021-05-02 13:38:23:862
2.1727,-9.4582,0.1343,-3.4532,-9.1255,0.9855,5.6499,0.0724,-2.9833,0.5608,-0.9557,1.4277,388225,2021-05-02 13:38:24:427
-5.1867,-11.5831,-8.4413,-1.418,-8.8612,-3.9547,0,0,0,1.6873,-0.6735,1.6542,388567,2021-05-02 13:38:24:769
-2.3952,-5.2555,2.2783,2.3246,-9.4311,1.3492,0,0,0,-0.4503,-1.377,-1.0901,389066,2021-05-02 13:38:25:268
-2.3952,-5.2555,2.2783,2.3246,-9.4311,1.3492,0,0,0,-0.4503,-1.377,-1.0901,389214,2021-05-02 13:38:25:416
5.8968,-10.2951,-1.1285,6.0764,-7.6603,-0.7531,0,0,0,1.1172,1.0901,1.5083,389670,2021-05-02 13:38:25:872
-2.1138,-2.9776,2.75,3.5205,-8.993,-1.7036,-3.3738,-0.7931,1.6881,-0.8294,-2.4576,-1.4911,390211,2021-05-02 13:38:26:413
4.6998,-9.3111,-3.7442,-0.8225,-9.7152,1.0526,0.9978,-1.0194,-2.7433,0.1787,0.5192,1.0438,390671,2021-05-02 13:38:26:873
-4.107,-3.4899,0.5258,3.1245,-9.2202,-1.1816,-6.1646,-2.0363,0.3621,-0.7049,-1.2541,-0.11,391210,2021-05-02 13:38:27:412
-1.6364,-10.6385,-0.3278,-1.5208,-9.6265,1.0897,2.6423,0.3701,-1.6124,0.7918,-0.5094,0.5646,391671,2021-05-02 13:38:27:873
-3.8088,-3.2647,-0.67,3.5081,-8.8146,-2.4831,-1.4839,-0.2724,1.6168,1.6058,0.2628,2.165,392168,2021-05-02 13:38:28:370
1.433,-9.3171,-1.18,-0.5508,-9.791,0.0546,-0.8274,0.4355,-3.9668,-0.447,1.0829,0.3489,392668,2021-05-02 13:38:28:870
2.6192,-8.3438,-0.3218,-0.7601,-9.7469,0.7686,2.9446,0.4874,-0.954,0.7536,-0.3054,0.4519,393167,2021-05-02 13:38:29:369
0.3305,-11.6752,-2.292,-1.7254,-7.3493,6.2595,0,0,0,1.457,3.1978,-0.1871,393581,2021-05-02 13:38:29:783
1.0798,-9.0012,2.7129,0.9376,-9.5731,1.9097,0,0,0,-0.2431,0.2752,0.5438,394429,2021-05-02 13:38:30:631
1.0798,-9.0012,2.7129,0.9376,-9.5731,1.9097,0,0,0,-0.2431,0.2752,0.5438,394429,2021-05-02 13:38:30:631
1.0798,-9.0012,2.7129,0.9376,-9.5731,1.9097,0,0,0,-0.2431,0.2752,0.5438,394429,2021-05-02 13:38:30:631
-2.5412,-3.6921,-0.0033,-5.4994,-7.8752,-1.9769,0,0,0,1.0687,-0.7239,-0.4245,394832,2021-05-02 13:38:31:034
1.1216,-13.9902,-1.5248,5.3359,-7.844,-2.4841,0,0,0,-0.1913,-0.0797,0.2049,395447,2021-05-02 13:38:31:649
0.6586,-10.0771,-0.5336,1.4715,-9.6956,-0.0345,-0.4773,-2.6479,-1.3056,-1.9135,1.7965,-1.8892,395803,2021-05-02 13:38:32:005
0.6153,-11.4335,-2.2681,0.902,-9.499,-2.264,0,0,0,-0.5714,-0.1564,-1.9422,396304,2021-05-02 13:38:32:506
0.6153,-11.4335,-2.2681,0.902,-9.499,-2.264,0,0,0,-0.5714,-0.1564,-1.9422,396612,2021-05-02 13:38:32:814
2.0734,-9.705,3.3832,2.4479,-9.2596,2.1065,0,0,0,-0.192,0.3193,0.6221,396622,2021-05-02 13:38:32:824
9.1002,-8.7473,-2.881,5.3813,-8.0849,-1.3589,0,0,0,0.0258,0.8001,0.8269,397418,2021-05-02 13:38:33:620
9.1002,-8.7473,-2.881,5.3813,-8.0849,-1.3589,0,0,0,0.0258,0.8001,0.8269,397419,2021-05-02 13:38:33:621
9.1002,-8.7473,-2.881,5.3813,-8.0849,-1.3589,0,0,0,0.0258,0.8001,0.8269,397419,2021-05-02 13:38:33:621
9.1002,-8.7473,-2.881,5.3813,-8.0849,-1.3589,0,0,0,0.0258,0.8001,0.8269,397419,2021-05-02 13:38:33:621
0.2791,-9.7804,0.0266,-0.3277,-9.7998,-0.1623,0,0,0,0.286,0.6984,0.2686,397822,2021-05-02 13:38:34:024
0.2791,-9.7804,0.0266,-0.3277,-9.7998,-0.1623,0,0,0,0.286,0.6984,0.2686,397916,2021-05-02 13:38:34:118
0.3939,-13.1106,-5.8104,4.5482,-8.1526,-3.0032,0.6836,-3.6677,-2.6119,-0.4335,-1.3448,0.8804,398570,2021-05-02 13:38:34:772
8.0121,-23.0593,-6.7702,1.1307,-9.4743,-2.2648,-2.7164,2.6956,2.6339,-0.6438,-0.5904,-1.1805,398916,2021-05-02 13:38:35:118
8.9133,-19.9373,-9.4768,3.7476,-8.1926,-3.8739,4.1732,-12.1462,0.3844,-0.7648,1.2147,1.1554,399415,2021-05-02 13:38:35:617
8.9133,-19.9373,-9.4768,3.7476,-8.1926,-3.8739,4.1732,-12.1462,0.3844,-0.7648,1.2147,1.1554,399416,2021-05-02 13:38:35:618
-4.9005,-11.6417,-7.2981,-3.0228,-7.787,-5.1377,0,0,0,1.7139,3.5768,3.8877,399880,2021-05-02 13:38:36:082
-4.9005,-11.6417,-7.2981,-3.0228,-7.787,-5.1377,0,0,0,1.7139,3.5768,3.8877,399885,2021-05-02 13:38:36:087
-7.6932,-13.3199,22.4139,-4.1892,-2.7658,-8.4244,0,0,0,-0.6562,7.09,1.253,400387,2021-05-02 13:38:36:589
-8.2415,8.4401,2.8947,2.2146,-9.3138,-2.1258,-3.4722,16.9679,16.1459,4.9992,-2.4223,0.8048,400886,2021-05-02 13:38:37:088
-3.4175,2.147,0.4851,1.1982,-8.4969,-4.7474,-0.4131,10.8388,25.142,6.9044,1.0514,-1.8144,401388,2021-05-02 13:38:37:590
-1.8039,-11.601,-16.1958,-2.451,-9.4374,1.0479,-1.4328,-17.6045,-14.0272,1.6122,0.4099,1.8599,401885,2021-05-02 13:38:38:087
-13.4189,-20.0689,-4.8455,0.1203,-9.1952,-3.4066,-8.1413,-2.0878,-4.287,-0.0973,0.8807,-0.3025,402386,2021-05-02 13:38:38:588
-4.727,-47.199,-3.4615,1.3483,-9.3357,-2.6829,-3.8055,-13.1151,-1.5112,-2.3872,0.2633,-3.0249,402885,2021-05-02 13:38:39:087
