ACCELEROMETER X (m/s²),ACCELEROMETER Y (m/s²),ACCELEROMETER Z (m/s²),GRAVITY X (m/s²),GRAVITY Y (m/s²),GRAVITY Z (m/s²),LINEAR ACCELERATION X (m/s²),LINEAR ACCELERATION Y (m/s²),LINEAR ACCELERATION Z (m/s²),GYROSCOPE X (rad/s),GYROSCOPE Y (rad/s),GYROSCOPE Z (rad/s),Time since start in ms ,YYYY-MO-DD HH-MI-SS_SSS
-0.9433,5.0015,8.5042,-1.1791,4.8282,8.4539,-0.0982,0.3029,-0.3769,0.0037,0.0226,-0.1863,26,2021-05-14 13:40:01:922
1.5419,-7.6231,5.0613,-6.25,2.8407,7.0027,7.559,-8.1309,-2.6656,-3.6145,-1.7324,-2.8326,525,2021-05-14 13:40:02:421
-3.6392,-3.8355,7.0725,-6.3912,-7.3865,0.8737,3.0373,2.901,-1.6676,-1.2333,-0.7098,3.4618,1026,2021-05-14 13:40:02:922
-0.6991,-5.3534,-3.6727,-5.041,-8.2546,1.6187,5.1483,7.8042,-3.9592,-1.1771,0.2279,-2.5638,1526,2021-05-14 13:40:03:422
-3.1699,-9.1889,-0.6776,-1.4721,-9.6838,0.4775,-1.2821,0.1301,-1.14,-0.0929,0.193,-0.1289,2027,2021-05-14 13:40:03:923
-3.0454,-8.4851,-0.0215,-2.2615,-9.4916,0.9823,-3.1818,0.8169,-1.7281,0.4746,0.4545,0.1759,2528,2021-05-14 13:40:04:424
-3.5243,-13.7164,2.5738,-2.8658,-9.3532,0.6895,1.9823,1.4607,-0.9172,0.0617,0.441,-0.3018,3029,2021-05-14 13:40:04:925
-1.8028,-9.3685,0.0048,-1.9586,-9.6087,-0.0815,-0.6938,0.6216,0.3229,0.0654,0.0501,0.1008,3526,2021-05-14 13:40:05:422
-0.5387,-9.9024,-0.5962,-1.4218,-9.6749,-0.739,-0.6371,-0.0239,-0.105,0.0409,0.0128,-0.0446,4026,2021-05-14 13:40:05:922
-1.9513,-9.2201,-0.1269,-2.0351,-9.5895,-0.2655,0.1497,0.3567,0.0794,0.1038,0.1173,0.0751,4526,2021-05-14 13:40:06:422
-1.3958,-10.4842,-1.245,-2.2059,-9.549,-0.3469,0.513,-0.8505,-0.5681,-0.0898,0.1167,-0.0586,5026,2021-05-14 13:40:06:922
-0.0862,-34.3089,14.5113,-4.6347,-8.4378,1.8691,-4.1331,-66.5234,-16.9694,0.1045,9.4012,7.2345,5526,2021-05-14 13:40:07:422
-20.7266,-13.4626,-2.0566,-0.5702,-9.3626,-2.8612,-21.8424,-56.8401,-17.1925,0.2957,1.7226,3.9047,6026,2021-05-14 13:40:07:922
1.6161,0.7997,-3.5027,-0.3034,-9.567,-2.1333,-16.8675,11.5968,16.8662,-2.1325,-1.2309,-1.3922,6526,2021-05-14 13:40:08:422
17.99,0.723,-3.8547,-2.487,-9.2732,-1.9983,21.2863,9.8039,-2.1686,-0.4337,0.3244,-1.3555,7026,2021-05-14 13:40:08:922
5.6336,-3.3447,-9.9455,-2.6363,-8.8034,-3.4234,7.6547,5.7683,-6.9392,-0.6811,-0.2743,3.9957,7526,2021-05-14 13:40:09:422
24.2341,-0.2442,-4.6639,1.2268,-9.0018,-3.6924,-46.1559,2.9949,28.5529,0.4246,-1.2034,4.9724,8026,2021-05-14 13:40:09:922
-9.1698,-30.3681,-6.8091,2.3617,-8.6065,-4.0645,-51.4045,-35.9831,21.9803,1.3891,-8.4238,0.7837,8526,2021-05-14 13:40:10:422
7.6998,-35.9418,-2.7438,5.6491,-6.8765,-4.1197,-24.9894,2.2748,34.9044,-2.854,4.5516,-0.1161,9026,2021-05-14 13:40:10:922
-0.3232,-0.5531,5.3079,2.2087,-8.8248,-3.6626,-6.8263,5.4629,10.0307,0.6884,2.3983,-0.8192,9526,2021-05-14 13:40:11:422
7.1874,-3.3208,-11.5927,-0.786,-9.7461,-0.7518,23.7185,-5.1316,15.0403,0.0623,-3.072,4.8234,10026,2021-05-14 13:40:11:922
-0.8475,-2.3631,6.019,1.7412,-8.9763,-3.5447,7.6346,10.3547,9.9241,0.3115,0.8351,-0.81,10526,2021-05-14 13:40:12:422
-5.0278,-17.6141,0.0958,-2.0494,-9.3119,-2.2932,0.5234,-3.1324,2.3056,-0.0929,-0.9053,-0.2957,11026,2021-05-14 13:40:12:922
1.8028,-5.928,3.5171,-3.8491,-9.0124,-0.3629,4.486,4.4025,3.3862,-0.4777,0.3861,0.4148,11526,2021-05-14 13:40:13:422
12.3493,-7.8243,-12.56,-4.7117,-8.5742,0.6728,17.8879,0.2568,-12.996,-0.2694,4.0714,5.0366,12026,2021-05-14 13:40:13:922
-7.4172,-1.6616,22.4552,1.3412,-9.2426,-2.991,-21.4865,10.064,1.9991,-3.4202,4.6835,-2.2431,12526,2021-05-14 13:40:14:422
-17.686,-78.4436,-15.014,-1.7179,-8.8363,-3.8909,-4.2107,-20.8066,-16.2199,0.6573,-1.8356,7.3945,13026,2021-05-14 13:40:14:922
-5.5665,-2.332,-6.5529,-0.6384,-9.2496,-3.1948,-5.1875,6.872,-3.1893,-1.0336,-2.3659,-1.6359,13528,2021-05-14 13:40:15:424
-0.996,1.1923,0.2897,-4.3782,-8.4443,-2.3864,3.1793,9.8203,1.122,-1.7306,1.7098,-1.2272,14026,2021-05-14 13:40:15:922
11.6813,-9.5912,-8.9232,-6.1724,-7.5594,-0.9631,9.4254,2.5084,-4.1518,-0.1118,0.3109,1.7715,14526,2021-05-14 13:40:16:422
-11.5161,-2.1644,22.9101,-1.6872,-9.4504,-2.0034,-10.0873,23.608,4.0835,1.292,-2.7122,5.1972,15026,2021-05-14 13:40:16:922
-26.9515,-74.3687,-9.7468,-4.0698,-8.269,-3.3512,2.4596,-23.1436,-1.3949,2.5381,-7.926,-1.2956,15527,2021-05-14 13:40:17:423
4.8219,-0.2777,-5.6575,-1.8707,-9.4391,-1.8906,-22.3822,9.5686,10.4438,-1.1136,-0.9462,-4.0739,16026,2021-05-14 13:40:17:922
1.9537,7.0126,0.2849,-6.3434,-7.2363,-1.889,7.0624,15.0189,2.7284,0.091,0.5296,1.8943,16526,2021-05-14 13:40:18:422
15.1529,-13.6182,10.2448,-4.2151,-8.3082,-3.0622,20.8338,-6.5274,13.9351,-0.7605,4.4245,4.2987,17026,2021-05-14 13:40:18:922
-22.6515,0.1269,-32.0201,-0.8895,-7.8793,-5.7702,-23.9459,8.05,-26.3881,-2.4502,-3.6304,-3.8271,17526,2021-05-14 13:40:19:422
-15.3804,-27.2915,1.9489,1.8435,-4.6582,-8.4305,-0.0508,-0.793,8.0799,-0.8833,0.6341,-4.3988,18026,2021-05-14 13:40:19:922
5.0733,0.5722,1.0989,-1.6766,-6.0218,-7.5563,5.4509,6.3297,3.6397,-0.7538,1.9407,-3.3292,18526,2021-05-14 13:40:20:422
-11.0899,-17.3867,2.2075,-3.3428,-6.3821,-6.6532,-3.0123,-4.9979,8.0478,-0.3366,4.1997,1.5302,19026,2021-05-14 13:40:20:922
-8.2265,-4.1037,6.1531,-3.6623,-8.2789,-3.7707,-4.6682,4.2807,9.7879,-0.9682,-4.6554,-0.0568,19526,2021-05-14 13:40:21:422
-2.5881,-10.6662,-1.8148,-1.572,-9.1376,-3.1941,0.1499,-1.5279,2.3272,-0.036,0.4612,0.2596,20026,2021-05-14 13:40:21:922
-5.7102,-4.5562,-8.2289,-4.856,-8.4599,-1.01,12.3643,14.6582,-6.0004,1.4044,-1.3964,3.5986,20525,2021-05-14 13:40:22:421
-3.1077,-0.3089,3.869,1.3119,-9.6833,-0.8266,-20.5624,9.4247,12.7267,-0.1686,0.0397,-1.3928,21026,2021-05-14 13:40:22:922
18.7993,-3.292,-1.0439,-3.5842,-9.1149,-0.492,3.0846,7.1919,-14.682,-1.273,3.2687,3.8729,21527,2021-05-14 13:40:23:423
-4.865,-22.5438,-5.0159,0.4006,-9.5966,-1.9789,-10.2977,-5.9609,0.2035,-0.3506,-0.664,-2.8607,22026,2021-05-14 13:40:23:922
-16.4673,-24.1886,-8.7125,-1.2864,-9.3373,-2.7074,-7.5223,-20.0402,24.1775,-2.1313,5.5088,0.1277,22526,2021-05-14 13:40:24:422
2.1284,3.4141,0.7015,-2.0481,-9.5904,0.0112,2.7362,9.4217,-2.5273,0.0739,-1.19,-1.9963,23026,2021-05-14 13:40:24:922
2.5762,2.8132,-1.1157,-4.0916,-8.9116,-0.1096,18.9042,7.9173,0.8963,2.1215,-2.7819,-0.857,23526,2021-05-14 13:40:25:422
-13.1394,2.2625,-8.1882,-1.5527,-9.6775,-0.3243,-12.7399,11.9848,-6.9686,-0.1423,-1.3854,-2.7855,24026,2021-05-14 13:40:25:922
10.6111,-57.9564,-1.6161,-1.3899,-9.6775,-0.765,-0.9823,-37.7192,12.4828,-2.0898,6.3249,-0.1258,24526,2021-05-14 13:40:26:422
4.8195,-0.2203,1.2833,-6.5395,-7.1819,-1.3513,11.0666,7.8453,-0.3892,-0.4172,-0.1814,-2.5394,25026,2021-05-14 13:40:26:922
24.6986,-11.7555,-21.1983,-5.1698,-8.3315,-0.169,43.5071,6.406,0.603,0.8766,-1.9621,3.8784,25526,2021-05-14 13:40:27:422
-8.7652,-12.6055,10.4076,-4.9972,-8.4022,-0.7754,-5.671,8.733,-5.7613,2.4031,2.0611,-0.821,26026,2021-05-14 13:40:27:922
-13.7691,-48.8226,15.6174,-5.15,-7.2293,-4.1696,-46.7467,-28.9423,18.4893,-1.003,0.0415,-1.9383,26526,2021-05-14 13:40:28:422
-18.8735,-30.5356,-2.1596,0.0439,-9.0383,-3.8049,-5.3495,3.1821,13.1087,-1.8656,-1.215,-3.6188,27026,2021-05-14 13:40:28:922
0.0024,-10.4698,1.8531,-2.2609,-9.2962,-2.1541,1.1606,0.1317,2.638,-0.383,-0.383,0.1881,27526,2021-05-14 13:40:29:422
-4.2401,-9.1028,-0.3136,-2.0371,-9.5807,-0.4799,-2.5055,0.6036,0.1772,-0.1191,0.1759,0.0501,28027,2021-05-14 13:40:29:923
-1.7717,-9.5888,-0.0814,-1.8215,-9.6242,-0.4773,-0.6814,-0.0854,0.7868,-0.1038,-0.1796,-0.3042,28526,2021-05-14 13:40:30:422
-0.8739,-9.5624,-0.4741,-1.4666,-9.6801,-0.5615,0.1322,0.2427,0.3797,-0.0672,-0.0831,0.0067,29026,2021-05-14 13:40:30:922
-0.091,-9.4691,-0.6273,-1.2772,-9.6987,-0.6886,1.4162,0.1968,0.0582,-0.1717,-0.3158,0.0214,29526,2021-05-14 13:40:31:422
-11.6454,-26.9515,-1.4365,-2.0039,-9.5948,0.3073,-8.1826,-17.8212,-0.5331,-1.5107,0.1057,-4.5534,30026,2021-05-14 13:40:31:922
-4.8363,-3.6416,-3.7589,1.2216,-9.5247,-1.9893,-6.3529,5.9646,-2.4972,-1.4325,-2.3897,0.1295,30526,2021-05-14 13:40:32:422
0.6009,-2.2098,-3.1125,-0.6462,-9.4804,-2.4239,5.8274,11.3001,0.4372,-1.9004,-0.7715,-3.9358,31027,2021-05-14 13:40:32:923
4.8722,1.4605,-2.0327,-0.5482,-9.1893,-3.3802,-2.6066,18.5287,2.2155,0.1368,0.3708,-0.5895,31526,2021-05-14 13:40:33:422
0.1173,6.845,-3.8858,-1.4164,-9.4228,-2.3185,9.3818,22.8493,0.868,0.2981,0.0843,-3.127,32026,2021-05-14 13:40:33:922
10.2568,-6.3638,8.6,-2.0269,-8.8129,-3.7941,15.0789,10.8273,10.1273,-1.463,2.441,-4.3677,32525,2021-05-14 13:40:34:421
-12.2392,3.3758,6.517,0.2273,-9.005,-3.8768,-12.4665,12.3808,10.3938,-1.212,-4.7134,2.3653,33026,2021-05-14 13:40:34:922
-0.8499,2.1093,5.964,-1.06,-8.8629,-4.0615,0.21,10.9722,10.0255,-0.2682,-1.066,-0.606,33526,2021-05-14 13:40:35:422
7.9559,-9.4164,-0.9313,-5.3531,-7.2703,-3.8286,21.6025,-3.7359,-10.5127,-1.1099,0.0715,-2.7281,34027,2021-05-14 13:40:35:923
-11.2168,-4.367,-0.6057,-1.0055,-9.2921,-2.9693,-9.8019,7.0774,-0.3754,1.2303,-0.9609,1.2364,34526,2021-05-14 13:40:36:422
-10.7931,-10.1825,12.2511,-1.1075,-9.5457,-1.9552,-9.9034,-12.1433,-0.8508,-0.1191,-0.1026,-1.0372,35026,2021-05-14 13:40:36:922
2.2314,-17.9445,-5.9424,-3.0224,-9.3193,-0.4309,-3.1667,-2.9749,10.0555,3.5681,0.642,4.8411,35526,2021-05-14 13:40:37:422
1.5634,3.0574,-6.3973,-6.2409,-7.5572,-0.3323,10.1243,12.9417,5.3674,0.8228,1.2688,2.7733,36026,2021-05-14 13:40:37:922
2.2889,3.3734,-3.4141,-4.6862,-8.4717,1.5618,6.9751,11.8452,-4.976,-2.2022,-0.1772,-1.7092,36526,2021-05-14 13:40:38:422
4.5203,8.8131,2.7725,-1.8119,-9.6225,0.544,-23.4637,6.2347,1.2804,1.2132,1.9535,3.496,37026,2021-05-14 13:40:38:922
-4.4939,-23.1615,10.829,-3.5323,-9.1111,0.8256,-6.9591,-28.2528,-14.6689,2.3353,-2.0226,0.5638,37526,2021-05-14 13:40:39:422
-1.5036,-0.3352,0.2251,0.0306,-9.8066,-0.0163,0.429,10.4865,-2.6198,-0.4734,-2.6157,-1.2761,38026,2021-05-14 13:40:39:922
9.3087,1.6209,-2.6336,-4.9932,-8.4378,0.2025,25.7199,12.0507,-6.3915,-1.6017,1.7025,-1.5846,38526,2021-05-14 13:40:40:422
10.2496,-2.2936,-2.2505,0.1439,-9.7926,-0.5049,4.5584,6.084,-0.3953,1.5064,-5.1997,5.6371,39026,2021-05-14 13:40:40:922
68.8333,9.5696,78.367,6.2368,-5.6915,-4.9879,62.5965,15.2611,83.3549,3.2687,-4.879,-1.8973,39526,2021-05-14 13:40:41:422
-4.1396,-3.1987,3.9169,4.2404,-6.9887,-5.4173,-8.38,3.7901,9.3342,0.7141,1.0928,-0.5644,40026,2021-05-14 13:40:41:922
-10.3932,-27.3561,-0.5148,0.3606,-8.5461,-4.7963,-10.7538,-18.81,4.2815,0.0629,-1.3531,-0.3451,40526,2021-05-14 13:40:42:422
-1.5945,-20.5351,4.6902,-0.6273,-9.2482,-3.2011,-0.9672,-11.2868,7.8914,-0.19,-0.8687,-0.8454,41027,2021-05-14 13:40:42:923
-5.4253,-8.1139,3.2705,1.3022,-9.4547,-2.2547,-6.4901,3.0812,-3.1243,0.9407,0.3567,-0.2498,41526,2021-05-14 13:40:43:422
-0.6201,-5.3654,0.723,-0.3766,-9.7837,0.5543,-4.419,-0.545,2.2044,-0.5699,0.0177,-0.6891,42026,2021-05-14 13:40:43:922
-5.5737,-19.417,-2.7653,-1.1972,-8.9519,-3.8212,-2.8949,-2.6778,9.7294,0.1228,1.1417,-0.4337,42526,2021-05-14 13:40:44:422
-3.225,0.091,5.3726,-5.8685,-6.5487,4.3411,4.6033,0.8912,-1.9394,0.5883,-1.0831,0.0232,43025,2021-05-14 13:40:44:921
-0.3376,1.0463,10.3094,-0.7882,-1.087,9.7143,0.0526,1.3776,-0.0955,0.2669,-0.0531,0.0348,43526,2021-05-14 13:40:45:422
-3.4261,1.7478,8.3222,-1.5389,0.6761,9.6615,-0.4502,0.21,1.3719,1.2223,-0.0489,-0.3598,44026,2021-05-14 13:40:45:922
-1.9585,2.0063,10.5129,-1.3802,1.4654,9.5978,0.349,0.7199,0.8133,-0.0751,0.1778,0.2468,44526,2021-05-14 13:40:46:422
5.5256,-1.206,13.4181,0.548,1.1251,9.7265,-2.0254,-1.4019,0.6749,2.278,-3.6182,0.6929,10,2021-05-14 13:43:17:879
11.6797,-10.4865,5.6133,5.8803,-7.543,2.167,-11.038,0.2073,-2.5511,-0.69,0.5459,-0.3761,511,2021-05-14 13:43:18:380
-1.3896,-4.7025,2.5774,-2.2414,-9.4033,1.6506,1.1008,2.1956,0.9287,-0.224,2.1074,0.5916,1010,2021-05-14 13:43:18:879
3.7768,-9.2632,-2.2657,-0.4975,-9.4764,2.4741,4.93,-0.6236,-1.6342,0.0631,-0.3134,0.0977,1510,2021-05-14 13:43:19:379
4.5742,-3.3162,4.2413,-0.596,-9.7654,0.6725,2.4055,-0.9133,-4.0749,-1.1611,0.2732,0.9332,2010,2021-05-14 13:43:19:879
-1.8063,4.2443,3.1831,-2.0799,-9.5832,-0.085,0.7562,11.2331,2.8847,-2.6463,0.9244,2.2171,2511,2021-05-14 13:43:20:380
2.0339,1.4216,-3.4507,-3.6869,-9.0393,0.9314,4.8873,8.8507,-3.4859,-1.0226,-0.4132,0.1284,3009,2021-05-14 13:43:20:878
-3.9586,0.615,-0.3099,-2.1733,-9.5541,-0.407,2.5362,8.9138,7.7876,-0.3488,2.2467,-0.4914,3510,2021-05-14 13:43:21:379
-1.8446,-1.9995,-4.0158,-1.8809,-9.4324,-1.9136,3.5631,-0.9796,-7.3977,1.7641,7.2738,-1.0415,4010,2021-05-14 13:43:21:879
0.1666,-9.6727,-8.3372,-3.5143,-8.4384,-3.5515,6.7731,-10.2097,-4.627,-2.468,-2.057,0.6501,4509,2021-05-14 13:43:22:378
11.9049,-13.1584,-4.5927,-2.6618,-8.7852,-3.4504,9.574,-13.67,-4.4928,3.3305,-0.3341,-2.7629,5013,2021-05-14 13:43:22:882
3.0467,-11.0611,-1.1501,-2.5494,-9.4613,-0.3935,1.6488,-1.1856,-4.0001,-0.0432,0.6504,0.0586,5510,2021-05-14 13:43:23:379
-4.7151,2.0967,-13.803,-2.7058,-9.3434,-1.2448,0.4433,9.7355,-4.9917,4.0533,-0.7315,-0.4375,6013,2021-05-14 13:43:23:882
7.9857,-7.6998,0.2049,-2.1026,-9.4873,1.3194,2.9182,-7.9674,-17.5624,4.1258,-6.9427,0.0612,6510,2021-05-14 13:43:24:379
19.4414,-78.1128,-44.0668,-2.7088,-8.94,-2.9848,-10.4494,-19.5201,4.2336,0.7319,0.1932,-0.0968,7010,2021-05-14 13:43:24:879
5.7688,-12.2557,7.1743,-3.6604,-9.0463,-0.9678,1.7074,7.0224,0.2022,0.9726,6.1734,0.0773,7510,2021-05-14 13:43:25:379
19.7312,-28.1815,13.8033,-3.0733,-8.1207,-4.5585,-14.6834,-18.5675,-16.4174,-0.089,-3.1885,-1.2064,8010,2021-05-14 13:43:25:879
-1.1097,-4.5805,-6.5201,-1.5209,-9.6281,-1.0756,2.5375,-1.2004,-0.4196,1.1768,0.6244,0.7802,8510,2021-05-14 13:43:26:379
5.4,-5.9545,-10.4513,-4.045,-6.0137,-6.6063,1.7554,6.159,6.7993,0.0976,0.1892,0.4942,9010,2021-05-14 13:43:26:879
1.9884,-1.6932,-0.76,-1.6857,-9.2963,-2.6282,9.0548,-30.3429,-5.6101,4.7141,-4.0435,0.0672,9510,2021-05-14 13:43:27:379
0.3269,-9.5001,-16.2449,-3.9065,-8.9439,0.9572,3.2099,-35.0563,-8.4358,4.1229,1.8854,-0.0851,10010,2021-05-14 13:43:27:879
-55.8625,-65.3857,-3.1158,-4.4949,-8.1234,-3.1587,1.5469,3.012,2.9355,-0.771,2.7371,0.1982,10510,2021-05-14 13:43:28:379
1.4521,-7.7788,1.6319,-1.9599,-9.6045,0.2862,0.5463,-0.9796,-3.6995,0.1521,1.0113,0.4514,11013,2021-05-14 13:43:28:882
-2.534,-4.4871,-3.6568,-4.3813,-6.8837,-5.4396,2.0291,4.8114,4.2797,-0.3635,-0.1579,0.5459,11511,2021-05-14 13:43:29:380
-6.6446,-8.4182,-13.7958,-2.2845,-9.5203,-0.5625,0.6874,0.8764,3.2544,1.1682,-2.5144,0.292,12010,2021-05-14 13:43:29:879
2.6803,0.8088,-9.6203,-2.7407,-8.1129,-4.779,2.8925,6.0024,4.2318,-1.6041,0.8619,-1.0164,12511,2021-05-14 13:43:30:380
-4.4877,3.0066,2.508,-0.4861,-9.6026,-1.93,-1.6323,9.6506,2.8407,0.974,2.3035,-0.5357,13011,2021-05-14 13:43:30:880
0.0251,1.1441,0.8154,-0.051,-9.805,-0.1743,-0.1026,10.5866,0.9178,0.6837,-2.2823,0.1309,13510,2021-05-14 13:43:31:379
-0.4822,-0.0915,4.8302,0.7797,-9.6875,-1.3097,-0.7099,9.6851,5.2387,-2.2079,0.4606,-0.2146,14010,2021-05-14 13:43:31:879
0.1187,1.0409,3.8417,-0.3054,-9.7669,-0.8275,0.7759,13.2903,-2.8381,-2.5339,0.4494,0.5165,14510,2021-05-14 13:43:32:379
4.1121,-6.3832,1.8018,0.7416,-9.6315,-1.6896,-0.185,6.2612,1.3493,1.2422,-0.9024,-0.1872,15010,2021-05-14 13:43:32:879
-4.8826,-11.6189,-7.9181,-1.7014,-8.2123,-5.0827,5.1545,-7.3625,-3.6175,-2.8068,-0.9283,1.282,15510,2021-05-14 13:43:33:379
1.8497,-10.9702,-0.8797,-1.2241,-9.5942,-1.6195,-5.5643,0.8044,1.1914,1.4007,1.0449,-0.2921,16011,2021-05-14 13:43:33:880
-0.4893,-27.7959,-9.7307,-1.9374,-8.0542,-5.2485,-12.3575,-19.9805,-2.0348,0.6774,-1.1786,0.7147,16510,2021-05-14 13:43:34:379
-0.8103,-2.7775,0.0446,-2.5549,-8.6319,-3.8901,2.281,3.9314,3.9485,-2.0045,3.6521,-2.6442,17011,2021-05-14 13:43:34:880
-3.6401,-9.481,1.2775,-1.8577,-9.5953,-0.8058,3.1323,-0.4455,-0.6787,0.2512,0.7431,0.0131,17510,2021-05-14 13:43:35:379
-3.1397,-9.2249,0.667,-2.4259,-9.5008,0.14,1.1536,-1.5209,-5.3208,-0.2054,-2.3214,0.0305,18013,2021-05-14 13:43:35:882
-0.0275,-9.8306,-0.6664,-2.5037,-9.4574,-0.6779,2.6372,-0.6664,0.2375,0.1338,0.4358,0.017,18511,2021-05-14 13:43:36:380
-7.9017,-10.0917,-4.7653,-2.6178,-9.3659,-1.2638,-4.7656,0.1379,-4.2156,1.1146,-0.6122,-0.2854,19010,2021-05-14 13:43:36:879
-2.0743,-9.2656,-2.735,-2.4456,-9.4579,-0.8588,0.1811,-0.3034,-0.4428,-0.0681,0.0637,0.0276,19511,2021-05-14 13:43:37:380
-3.4606,-8.4709,0.4035,-2.5494,-9.2111,-2.1971,1.8303,-0.465,-0.413,-0.4901,0.4919,-0.1361,20011,2021-05-14 13:43:37:880
-2.5172,3.1932,0.9517,-2.4512,-9.4641,-0.7701,2.7245,11.8331,2.0175,0.6075,0.0374,-0.2743,20510,2021-05-14 13:43:38:379
-0.0706,0.5862,3.9494,-2.795,-9.3813,-0.5911,3.0535,9.0735,0.6838,-1.0164,2.7534,0.8057,21010,2021-05-14 13:43:38:879
-0.1519,0.0428,2.0411,-2.3961,-9.503,-0.3496,3.7879,7.765,-7.0408,-2.1293,-0.5272,0.9444,21509,2021-05-14 13:43:39:378
0.006,1.5604,-3.4436,-1.2981,-9.6493,-1.1736,0.0917,10.7046,1.5765,-2.4034,3.7211,-0.2214,22010,2021-05-14 13:43:39:879
-2.6704,1.6322,-27.2267,-2.2206,-9.4756,-1.2056,2.4838,6.6471,-9.6459,-2.2392,1.5354,0.1484,22511,2021-05-14 13:43:40:380
8.4715,-10.6591,3.7385,-0.3032,-9.3448,-2.9585,11.2554,-4.6174,10.1444,1.196,2.2044,-1.625,23010,2021-05-14 13:43:40:879
0.006,-21.411,-3.7454,-1.3921,-9.6383,-1.1559,0.0961,2.6335,-1.8508,-2.0486,2.1664,0.9129,23510,2021-05-14 13:43:41:379
-18.6583,-12.3156,-29.1204,-1.782,-9.0778,-3.254,-3.2195,-3.7487,-4.5934,2.0178,0.5592,-0.7556,24010,2021-05-14 13:43:41:879
-0.6069,1.855,-0.0105,-1.6674,-9.5868,-1.2181,2.1448,11.2221,6.2031,0.8144,1.0513,-0.7718,24510,2021-05-14 13:43:42:379
-0.3912,1.5891,6.3697,0.4091,-9.7685,0.7607,1.0098,8.6116,-3.6046,2.9021,1.4341,-1.4309,25009,2021-05-14 13:43:42:878
1.6172,-1.0059,-3.6425,-0.6436,-9.7826,0.2391,0.5543,8.8369,-1.9487,0.7168,-1.6636,0.6113,25510,2021-05-14 13:43:43:379
2.0363,-6.2444,0.0254,-0.5724,-9.7806,-0.4264,2.6062,5.1833,0.2853,1.7394,1.5807,-0.6787,26011,2021-05-14 13:43:43:880
-0.9993,-9.4666,-5.3614,-2.4461,-8.8625,-3.4122,-1.7267,-8.4018,3.8533,0.5064,1.299,-0.1781,26510,2021-05-14 13:43:44:379
-2.8549,-10.6014,-0.7481,-1.7807,-9.6354,-0.398,2.5867,-0.5353,-7.9802,0.1129,1.7579,-0.2818,27010,2021-05-14 13:43:44:879
-2.2875,2.135,-1.4399,-0.727,-9.7793,-0.0818,-2.1083,11.448,5.6808,-1.5086,0.0192,-0.2091,27509,2021-05-14 13:43:45:378
-4.1955,2.9085,4.3875,-1.1254,-9.7414,-0.1002,1.485,11.1033,-2.0233,-1.3533,0.7924,0.5152,28011,2021-05-14 13:43:45:880
-0.8127,0.7944,-1.6313,-2.4313,-9.4986,-0.1916,2.6449,6.6858,-3.7832,-0.9115,3.2224,-0.6127,28511,2021-05-14 13:43:46:380
-1.5356,1.1824,1.852,-1.9563,-9.5999,0.4304,1.1602,10.2234,-0.2506,3.2303,-2.3075,-1.1372,29013,2021-05-14 13:43:46:882
4.0235,-8.9614,-5.8905,-1.3358,-9.713,-0.2086,3.9415,-0.3995,-4.0528,4.3558,-2.6731,0.3552,29510,2021-05-14 13:43:47:379
8.1197,-17.3937,-39.3192,-2.1968,-9.4925,-1.1117,-12.7372,-47.7576,-13.9452,3.8291,1.5517,-0.8132,30013,2021-05-14 13:43:47:882
-32.6925,-66.6497,-29.1275,-2.0519,-8.406,-4.6151,2.1402,7.3865,-2.2489,0.2123,-0.4893,-0.8874,30510,2021-05-14 13:43:48:379
0.8632,-9.2297,-4.3558,-1.3589,-9.6835,-0.7441,1.0823,-1.4182,-1.2647,-0.0415,-0.2773,0.3267,31010,2021-05-14 13:43:48:879
-1.392,-3.7783,-2.2729,-3.5986,-6.3833,-6.5172,1.4072,-6.6149,-0.9346,-3.7366,0.3267,0.6052,31510,2021-05-14 13:43:49:379
-1.0424,-7.0415,-0.4989,-1.3464,-9.5871,-1.5639,-2.399,3.113,2.252,1.6881,1.749,-1.1673,32010,2021-05-14 13:43:49:879
0.2671,-9.402,0.1187,-1.5002,-9.6812,-0.4411,1.7061,-0.1926,0.3006,-0.0767,0.8187,0.0744,32510,2021-05-14 13:43:50:379
-1.0905,-3.9027,6.5061,-1.88,-9.124,-3.0641,0.8228,4.268,8.8481,-2.2183,0.5163,0.3205,33010,2021-05-14 13:43:50:879
1.9286,-1.7267,-0.5827,-2.9706,-9.1222,-2.0326,0.9066,9.9775,1.4796,-0.8454,-1.0088,0.5096,33510,2021-05-14 13:43:51:379
-2.5364,2.298,-2.4837,-1.4889,-9.6104,-1.2622,-5.5604,11.4942,0.9204,-0.5737,0.7263,-0.0324,34013,2021-05-14 13:43:51:882
-1.0834,-0.5991,-0.0823,-1.3396,-9.567,-1.6878,0.8035,9.8746,0.8591,0.699,-2.7716,-0.3065,34511,2021-05-14 13:43:52:380
0.4561,-5.5499,-3.9655,-2.695,-7.6642,-5.4925,2.8405,2.5783,3.0284,0.5586,-0.6756,-0.2388,35010,2021-05-14 13:43:52:879
3.9802,-7.7907,-1.2556,0.4021,-9.6276,-1.8217,-0.2225,2.6612,-1.0255,0.0774,0.1779,-0.0799,35510,2021-05-14 13:43:53:379
-3.2593,-12.2677,3.0921,-0.0203,-9.6473,-1.7607,-2.2847,-1.6589,3.1066,-0.9285,0.9331,0.0246,36010,2021-05-14 13:43:53:879
0.4155,-0.216,-0.6042,-2.3676,-5.6278,-7.6741,2.3771,-8.0209,-0.6724,-4.1646,0.1779,1.3419,36511,2021-05-14 13:43:54:380
5.1054,-17.578,-0.1759,-1.6717,-9.521,-1.651,4.2324,9.1563,-1.376,1.1007,2.6024,-0.6962,37011,2021-05-14 13:43:54:880
0.3293,-6.4406,-1.3442,-1.4916,-9.4403,-2.1969,0.7293,-0.5021,-3.1032,-2.2294,0.6915,0.2425,37511,2021-05-14 13:43:55:380
-2.6895,1.0361,5.5917,-2.0447,-9.5796,-0.4697,2.1025,10.3649,-0.9043,-0.4135,0.2587,1.1708,38010,2021-05-14 13:43:55:879
-3.7286,3.3129,13.3173,-0.429,-9.6484,-1.7015,-1.3785,12.5807,10.0657,-1.284,2.14,-0.3842,38510,2021-05-14 13:43:56:379
-1.7728,1.0241,4.6364,-1.0419,-9.5614,-1.9141,4.7518,5.0752,-6.4719,-2.5033,2.3085,-0.5079,39016,2021-05-14 13:43:56:885
3.0514,-5.7703,0.5833,-2.1534,-9.5202,-0.9479,3.5868,3.5801,0.0209,0.7269,-1.5514,-0.0618,39510,2021-05-14 13:43:57:379
-0.0538,-8.715,-3.087,-2.3973,-8.9387,-3.2439,1.5988,-0.5766,0.8375,-1.311,-0.3092,0.1272,40013,2021-05-14 13:43:57:882
-1.1288,-7.293,-1.8924,-2.3891,-9.5043,-0.3609,2.2163,-5.5338,3.2455,1.3103,0.4245,-0.2633,40510,2021-05-14 13:43:58:379
-0.0251,-8.2744,0.0781,-1.6024,-9.6501,0.6917,0.0189,1.0813,0.6103,0.2317,-0.4329,0.2843,41010,2021-05-14 13:43:58:879
-5.3303,-6.3233,0.3437,-2.8944,-7.8482,-5.1185,-1.0551,-0.0815,4.6212,-2.5068,-1.4579,0.7138,41510,2021-05-14 13:43:59:379
-4.8706,-14.8104,11.4021,-3.0976,-9.1068,-1.9082,1.0919,-0.0517,-0.5771,0.9606,-1.1881,-0.3366,42010,2021-05-14 13:43:59:879
-17.26,-13.7856,-3.8435,-1.4911,-9.5479,-1.6684,3.8578,-4.722,-2.8115,-3.0347,-1.2788,0.8921,42510,2021-05-14 13:44:00:379
3.7935,-1.5852,1.6917,-3.4701,-8.8068,-2.5631,9.3985,2.3489,1.4122,-0.6373,-0.0596,0.8298,43012,2021-05-14 13:44:00:881
-3.8698,-7.2978,-6.7379,-2.8553,-8.5683,-3.8213,-0.2092,-0.5927,0.3074,-3.3109,-2.3156,0.4604,43511,2021-05-14 13:44:01:380
0.2288,-21.1929,2.9151,-2.2288,-8.6243,-4.1017,7.1835,2.0587,4.9697,-0.4407,0.162,-0.7958,44010,2021-05-14 13:44:01:879
3.2118,-16.2757,12.8172,6.9577,-5.3016,-4.4332,5.5129,-3.807,-5.5146,1.3003,-2.6978,-1.0581,44510,2021-05-14 13:44:02:379
4.4901,-2.1885,5.8908,8.5378,-4.8241,-0.0656,1.7436,-2.1008,-2.8231,-3.7272,0.0403,-2.0068,45010,2021-05-14 13:44:02:879
3.3972,-3.1989,9.9969,4.6419,1.5652,8.4955,-1.6737,-5.7844,3.7202,1.328,3.022,-2.5938,45510,2021-05-14 13:44:03:379
-1.2939,3.9799,6.8282,-0.9338,5.4775,8.0806,0.8261,-3.1051,1.4441,0.419,0.3167,0.9862,46010,2021-05-14 13:44:03:879
0.0251,3.1825,9.9105,0.0102,5.0598,8.4005,-0.4975,-1.6413,2.3893,0.9662,-1.0632,0.0515,46509,2021-05-14 13:44:04:378
-0.7098,5.7179,6.7313,0.1552,5.9488,7.7947,-1.0174,-1.4794,3.3071,-0.6017,-0.5398,0.1519,47010,2021-05-14 13:44:04:879
2.2433,1.8586,11.4631,0.1501,1.988,9.6019,2.3795,-1.836,-4.1538,3.0151,-2.4135,1.8373,15,2021-05-14 13:37:18:303
-0.475,-5.5738,0.3796,2.6889,-9.4302,-0.1022,16.4908,8.8483,-10.5092,-1.3996,-1.4723,1.2513,515,2021-05-14 13:37:18:803
7.8897,-20.616,-15.079,3.2984,-8.9863,-2.13,6.114,-9.5357,-0.3437,-3.9068,0.7944,3.7361,1015,2021-05-14 13:37:19:303
0.6861,-9.0981,-1.4973,-3.2803,-8.8018,-2.8176,3.4571,1.8692,4.3739,-0.409,-0.6822,0.1721,1515,2021-05-14 13:37:19:803
-1.3729,-9.3948,-3.3335,-3.7436,-8.8311,-2.0414,0.7801,-1.6155,-1.0367,1.3765,-0.3189,0.1132,2014,2021-05-14 13:37:20:302
2.9653,-11.8131,-3.0296,-2.9785,-9.2321,-1.4375,2.253,-1.9726,0.373,-0.7252,-0.9801,0.4959,2515,2021-05-14 13:37:20:803
1.2033,-8.9904,-0.4893,-2.4392,-9.2155,-2.301,2.9064,-0.9861,1.6406,0.0255,0.7127,0.3705,3015,2021-05-14 13:37:21:303
-1.5069,-7.5036,-3.5587,-2.2396,-8.402,-4.5345,-10.1251,-4.5808,-10.0888,-1.2188,0.8547,-0.2963,3515,2021-05-14 13:37:21:803
-51.2611,-59.6471,20.234,-2.5299,-7.9908,-5.0909,0.9608,6.8171,2.4878,-3.8929,2.4138,-0.6831,4015,2021-05-14 13:37:22:303
-3.2617,-1.5135,1.1363,-0.0529,-9.4664,-2.5604,-2.6121,6.8816,2.986,-0.9537,0.4636,-1.2561,4515,2021-05-14 13:37:22:803
-2.8956,-0.125,0.7077,0.6969,-9.6942,-1.3069,-4.7701,7.9945,1.7151,0.4694,1.2247,-0.6179,5016,2021-05-14 13:37:23:304
0.5877,-0.015,-1.9283,0.0896,-9.4483,-2.6253,-1.4874,9.666,4.784,1.5277,-2.2638,0.5556,5515,2021-05-14 13:37:23:803
-3.1493,1.3666,3.5973,-1.9175,-9.4174,-1.951,1.8322,10.8629,1.036,-0.5488,0.7617,0.3699,6015,2021-05-14 13:37:24:303
-5.0671,0.9356,13.0277,-0.9,-8.1438,-5.3887,2.1874,8.0544,21.2574,-0.9839,-0.9763,-0.4597,6515,2021-05-14 13:37:24:803
-0.6571,-2.7368,0.181,1.2419,-8.264,-5.1316,-4.7222,-5.3193,-0.0196,0.8952,2.1949,-4.374,7015,2021-05-14 13:37:25:303
-2.8214,-13.3499,-2.2872,-0.5752,-9.1124,-3.5782,3.3497,-1.5786,5.0118,1.5903,0.1258,1.0302,7516,2021-05-14 13:37:25:804
-4.4949,-20.8723,0.224,-1.2857,-8.0109,-5.5084,2.9053,5.4958,7.2371,3.3626,-0.1194,-0.6551,8015,2021-05-14 13:37:26:303
-0.6236,0.9284,1.2918,0.7299,-9.3894,-2.7343,-2.8333,12.1125,9.2898,-2.1009,-1.0235,0.2837,8515,2021-05-14 13:37:26:803
0.9565,2.3171,5.9554,-1.2203,-9.5636,-1.7943,-1.9332,11.1336,-4.1477,-1.4899,3.506,0.9696,9015,2021-05-14 13:37:27:303
0.7316,0.5189,0.8847,-0.931,-9.7152,-0.958,-4.6621,-6.6267,-1.6714,-0.2257,0.9256,0.7648,9515,2021-05-14 13:37:27:803
-7.8538,1.7378,-19.18,-0.0565,-9.5449,-2.25,-2.2984,2.9328,0.6766,0.3971,1.6468,0.8152,10016,2021-05-14 13:37:28:304
-2.1293,-20.6184,-2.7182,-1.3248,-8.6541,-4.4183,-3.094,-50.791,-12.3341,-0.9787,2.0506,0.4163,10515,2021-05-14 13:37:28:803
-6.9918,-18.0903,-25.6202,-0.9094,-8.8481,-4.1297,0.1149,6.2419,2.5271,-4.3086,2.9313,-0.4381,11014,2021-05-14 13:37:29:302
2.3309,-49.7426,8.3019,-1.1128,-9.1961,-3.2193,-0.346,0.8101,-8.4871,-3.5037,-1.3836,-0.5033,11515,2021-05-14 13:37:29:803
2.7544,-8.8561,-1.66,-0.0613,-9.5935,-2.0327,-5.3958,4.2362,-2.1583,-0.1423,-1.9408,-0.5408,12015,2021-05-14 13:37:30:303
-4.8682,-15.4591,-12.7591,-1.9211,-7.4179,-6.1199,-0.505,-2.7315,-4.957,-5.0239,0.2749,1.0778,12516,2021-05-14 13:37:30:804
0.0685,0.3203,0.5641,-0.0845,-8.4065,-5.0492,-0.0995,2.8717,-5.5462,1.7121,-0.0049,-1.4234,13016,2021-05-14 13:37:31:304
-1.0543,-0.3212,-0.597,0.1042,-9.7499,-1.0488,-1.0686,8.3108,1.7429,0.379,0.139,-0.3008,13515,2021-05-14 13:37:31:803
-1.1503,-0.5847,-0.8486,-0.9588,-9.6594,-1.3952,0.4094,9.5013,1.1803,-0.8584,-0.9954,-0.6831,14015,2021-05-14 13:37:32:303
-0.3577,-0.0508,-0.0559,-1.5077,-9.5971,-1.3393,-0.3956,10.2075,3.9594,-0.6751,1.5106,0.6038,14514,2021-05-14 13:37:32:802
0.7292,0.2988,1.3899,-0.4582,-9.7188,-1.2272,0.7844,11.0966,-0.2727,-0.8818,0.7426,0.0756,15015,2021-05-14 13:37:33:303
-1.7489,-4.6762,-3.5827,-0.3137,-9.5978,-1.9883,-0.3277,6.2399,-3.215,0.7872,0.846,-0.5786,15515,2021-05-14 13:37:33:803
0.5231,-11.0228,0.5665,-1.3872,-9.28,-2.8511,1.5921,-2.0499,1.8741,-1.4282,-1.3232,0.6747,16016,2021-05-14 13:37:34:304
-5.2107,-21.0063,-10.0179,-2.3576,-7.8818,-5.3376,4.5513,5.4196,7.2906,2.9434,-1.1235,0.0341,16515,2021-05-14 13:37:34:803
-1.3202,1.4216,6.2477,-0.7583,-9.772,-0.3202,-0.7669,10.1957,-3.2207,0.9544,1.0682,-0.0602,17015,2021-05-14 13:37:35:303
-0.7289,2.0417,-8.3659,-1.2048,-9.658,-1.2006,3.2883,-3.1947,-3.5743,2.2128,-3.9597,-0.3851,17515,2021-05-14 13:37:35:803
-2.9291,-7.2305,-7.6454,-0.966,-9.7577,-0.1552,-3.5288,-45.2295,-3.5929,-2.2933,-0.0609,1.2347,18015,2021-05-14 13:37:36:303
-2.5005,-5.1287,-1.095,-0.7379,-9.6518,-1.5711,-1.5799,3.4316,4.3722,0.0409,-1.7235,-1.0151,18515,2021-05-14 13:37:36:803
13.7602,-50.6285,4.7441,-1.454,-9.1274,-3.2783,-14.5049,-35.9782,-16.3368,-2.1351,-3.0355,0.923,19016,2021-05-14 13:37:37:304
2.843,-32.2896,10.7988,-1.7908,-8.5395,-4.4767,0.7598,6.7465,2.2323,-4.3636,-4.3992,0.141,19515,2021-05-14 13:37:37:803
0.0805,-8.5594,-1.3992,-0.3053,-9.7827,-0.6132,1.3712,1.3827,-0.7714,0.3213,-0.2663,-0.5107,20015,2021-05-14 13:37:38:303
-1.3777,-10.7548,-2.6656,-2.7055,-7.4709,-5.7477,-1.9123,-9.5886,2.7014,-3.6883,0.6609,0.5962,20515,2021-05-14 13:37:38:803
4.5212,-10.6926,-1.7366,-2.2083,-9.2385,-2.4379,0.8323,-6.8174,-2.2756,0.8442,-1.089,-0.4455,21016,2021-05-14 13:37:39:304
0.0876,-0.2231,7.3131,0.4931,-9.7418,-1.0124,-2.4714,11.718,-3.49,-1.6643,-1.0757,0.4059,21515,2021-05-14 13:37:39:803
1.3062,-2.3779,-2.0958,2.1059,-9.5688,-0.416,0.004,2.4983,0.945,1.707,-0.8381,0.76,22015,2021-05-14 13:37:40:303
4.3346,-10.1755,-10.3723,0.5037,-8.4776,-4.9038,-0.7958,0.6081,8.6125,-1.6597,1.9216,-0.6015,22515,2021-05-14 13:37:40:803
0.8369,-6.9242,-3.4507,0.4878,-6.9235,-6.9281,2.289,4.7768,4.384,2.8494,1.0882,-0.4516,23014,2021-05-14 13:37:41:302
-0.8749,-9.9742,-6.4699,3.2178,-9.2258,-0.8371,2.0355,0.1033,2.5838,1.0459,-0.7148,-0.8917,23515,2021-05-14 13:37:41:803
3.1831,-7.6519,-0.4271,3.2163,-9.2366,-0.7154,-1.4801,-1.3478,-6.6111,2.8275,0.9514,-0.885,24014,2021-05-14 13:37:42:302
-0.0347,-7.7764,-3.3,0.8264,-9.7227,-0.9784,-3.3126,-2.5444,-3.6742,0.1888,0.4233,0.5059,24515,2021-05-14 13:37:42:803
-8.0118,10.1097,11.2442,-0.3226,-9.7999,-0.166,0.4205,11.5564,4.3648,-1.5971,3.7266,1.4851,25015,2021-05-14 13:37:43:303
3.3099,-1.6522,-0.2764,-2.6614,-9.4381,-0.0933,1.5859,2.4488,-6.4516,2.5381,-1.1241,0.4525,25514,2021-05-14 13:37:43:802
-3.2833,-8.6862,0.4756,-2.6946,-9.3726,-1.0313,1.0165,-0.1921,3.1296,-0.3021,-0.735,-0.2282,26015,2021-05-14 13:37:44:303
-0.0993,-9.9455,-1.1333,-2.6362,-9.4405,-0.3139,1.8506,-0.1798,-3.0653,0.1512,0.5351,0.3323,26515,2021-05-14 13:37:44:803
-3.5874,-8.4972,-6.8169,-2.7993,-4.7713,-8.0975,-5.2993,-2.3597,0.6577,-1.7904,0.8992,0.0964,27015,2021-05-14 13:37:45:303
-9.6446,-7.5108,-19.3573,-3.0629,-9.167,-1.6598,-0.4749,-2,1.276,2.7047,-0.0647,-0.4833,27516,2021-05-14 13:37:45:804
-4.0065,-9.1292,-5.6749,-3.2142,-9.1593,-1.3952,1.4715,-0.7781,-1.2588,-0.4835,0.0444,0.2112,28015,2021-05-14 13:37:46:303
-0.5901,0.1289,-4.1429,-3.2202,-9.234,-0.7313,3.9319,6.4504,-2.8191,2.4837,-1.498,0.2059,28515,2021-05-14 13:37:46:803
-4.229,-9.4738,0.9254,-2.6782,-9.4119,-0.6424,1.4191,2.6518,-6.6892,0.1005,0.0967,-0.3059,29015,2021-05-14 13:37:47:303
0.0347,-23.2759,-6.3861,-3.1503,-8.9593,-2.4447,2.674,-11.2235,-5.9939,4.3335,-0.6044,-0.8156,29515,2021-05-14 13:37:47:803
-9.9485,-18.8061,6.2166,-1.7923,-8.611,-4.3369,-6.6778,-10.9798,-9.3641,-2.6589,1.2533,-0.2582,30015,2021-05-14 13:37:48:303
-28.9529,-77.5358,-27.6936,-2.0482,-9.1918,-2.7361,1.069,8.4255,0.4628,-0.5504,-0.1706,-0.2207,30515,2021-05-14 13:37:48:803
-1.0065,-10.0173,-1.9164,-0.7326,-9.6866,-1.3428,0.9521,-0.0475,-1.2585,-0.1377,0.2831,0.5362,31014,2021-05-14 13:37:49:302
0.1283,-8.9303,-6.3766,-2.5114,-6.0602,-7.2896,1.6921,-5.7193,0.8143,-3.1938,0.3592,0.648,31515,2021-05-14 13:37:49:803
-1.9187,-4.5781,-27.5952,-2.1172,-8.6145,-4.1807,0.7764,5.2927,6.2148,-0.3531,1.1075,0.7394,32015,2021-05-14 13:37:50:303
0.3437,0.8112,0.1834,-1.1013,-9.5603,-1.8863,0.5897,10.4549,4.1416,0.1831,0.273,0.0823,32515,2021-05-14 13:37:50:803
-0.76,-0.2471,-0.6114,-1.1694,-9.711,-0.7071,-0.1933,11.0145,-0.1954,0.2987,-0.8734,0.1526,33015,2021-05-14 13:37:51:303
-0.8031,-5.0183,-0.3266,-0.8593,-9.5924,-1.8489,-0.9588,1.7287,1.7276,0.1764,-1.3655,0.297,33514,2021-05-14 13:37:51:802
-0.4152,-10.7668,-6.7881,-2.0539,-8.6722,-4.092,-1.5675,1.1068,1.8009,-0.8308,-0.6777,0.1492,34016,2021-05-14 13:37:52:304
-0.8677,-9.3876,-3.4795,-1.1451,-9.67,-1.1623,1.0124,0.0886,-1.5854,1.0418,-0.3419,0.0073,34515,2021-05-14 13:37:52:803
7.1788,-3.7496,-18.3015,-0.4934,-8.3385,-5.1377,-4.5226,-4.4619,-12.9932,0.7665,1.2017,0.347,35016,2021-05-14 13:37:53:304
5.1081,-19.0119,-22.3594,-0.0162,-9.154,-3.5177,0.9575,5.9271,1.2106,-4.02,0.1217,1.3587,35515,2021-05-14 13:37:53:803
-21.5049,-75.9078,-33.705,-2.1849,-8.6767,-4.0138,-1.7015,9.3904,2.6268,-0.9297,-0.5979,0.7675,36016,2021-05-14 13:37:54:304
-1.2078,-11.2696,-4.8371,1.0139,-9.5325,-2.0674,-1.5456,-1.0045,-2.2995,0.0797,-0.4035,0.5481,36515,2021-05-14 13:37:54:803
1.8185,-4.5805,-5.8499,-1.5065,-7.8426,-5.6916,-2.9164,-4.4886,3.9441,-2.6466,0.0805,0.9948,37015,2021-05-14 13:37:55:303
-3.1588,3.1932,-4.6672,0.6299,-9.7864,0.0163,-4.1776,-34.2147,-14.05,4.1725,-2.1212,-2.4278,37515,2021-05-14 13:37:55:803
-1.8087,-9.1866,5.5176,-0.9461,-9.6731,-1.3062,3.0293,-1.9266,-7.3254,3.5661,-2.2119,-0.3066,38014,2021-05-14 13:37:56:302
11.1649,-24.0012,8.5819,-1.6831,-8.9119,-3.7303,-2.4164,-36.8368,-7.9826,-3.8719,-1.2208,0.4833,38515,2021-05-14 13:37:56:803
-3.5133,-8.5762,1.1937,-1.3435,-9.5467,-1.7959,-1.7396,0.9988,-9.6901,-0.3112,2.063,0.3978,39015,2021-05-14 13:37:57:303
-2.819,-8.1906,0.236,-1.5819,-9.2416,-2.874,-3.8889,-0.6535,4.1366,0.4174,-3.2732,-0.5831,39516,2021-05-14 13:37:57:804
-0.8007,-9.8019,-0.8916,-2.2263,-9.3898,-1.7454,2.21,-1.1511,-0.6895,0.31,-1.2553,-0.4323,40015,2021-05-14 13:37:58:303
-2.8047,-9.3852,-0.2812,-1.4803,-9.4044,-2.3531,-1.5317,-0.6742,1.7867,-0.7804,0.7347,0.2228,40514,2021-05-14 13:37:58:802
0.8106,-9.7421,-2.4287,-1.2244,-9.6686,-1.0905,1.8999,-0.2779,2.3989,0.6217,-0.9549,-0.0418,41015,2021-05-14 13:37:59:303
-1.8182,-9.1077,-2.1078,-2.0367,-9.3564,-2.1167,2.3119,-0.4553,-0.8629,0.2996,-0.2161,0.0102,41515,2021-05-14 13:37:59:803
0.6359,-0.0843,-0.0344,-0.4487,-9.7501,0.9507,-0.8975,11.3496,-4.9376,4.4028,-4.1336,-1.2277,42015,2021-05-14 13:38:00:303
-3.4822,2.0441,1.5526,0.6026,-9.787,0.1464,-3.5899,-9.7188,-5.9672,1.9599,1.3457,-1.003,42515,2021-05-14 13:38:00:803
6.6162,-13.302,-7.5449,0.3224,-9.7731,-0.7438,-16.2043,-22.7169,4.8993,1.9338,1.9226,-0.7941,43015,2021-05-14 13:38:01:303
0.1355,-16.922,6.3841,-1.4253,-8.9745,-3.6874,-10.2926,-37.8435,0.897,-0.9584,0.8211,0.8656,43516,2021-05-14 13:38:01:804
3.4585,-2.0665,-15.5889,-0.5021,-9.6045,-1.9164,-0.1457,7.7045,3.4057,-3.863,-2.5115,0.7107,44018,2021-05-14 13:38:02:306
-0.1137,-0.1442,-0.3458,-0.8186,-9.7226,-0.9856,-0.5193,8.7495,1.0282,-0.5168,0.8801,0.1089,44515,2021-05-14 13:38:02:803
-6.3861,-2.7057,-6.5345,0.9376,-9.5449,-2.0462,-1.8029,9.8869,3.1285,0.9705,0.733,-0.4421,45015,2021-05-14 13:38:03:303
-3.6018,-9.8928,6.4104,-2.4536,-8.7011,-3.8001,-6.9294,-6.541,-0.5136,-3.3679,1.6853,1.3529,45515,2021-05-14 13:38:03:803
-35.1344,-29.7449,10.5595,-2.4528,-9.0728,-2.7998,-6.1426,8.0873,4.8652,0.8585,-2.8131,2.3134,46015,2021-05-14 13:38:04:303
0.37,-0.7666,1.4019,0.3495,-9.7973,-0.2471,2.541,5.2216,-14.8606,2.976,2.6025,-1.082,46516,2021-05-14 13:38:04:804
0.3269,-0.0772,-0.9299,-2.605,-9.4219,-0.7819,2.3784,8.9849,0.6685,0.3205,-0.3092,0.5,47016,2021-05-14 13:38:05:304
-4.6289,-8.3055,1.6271,-2.686,-8.9617,-2.9401,-3.3349,-12.2755,2.4457,-2.9136,-0.7981,-0.1599,47514,2021-05-14 13:38:05:802
-4.4949,-9.3972,-6.058,-2.3385,-9.4095,-1.471,1.8089,-0.9769,-3.176,0.153,-1.1716,-0.6658,48015,2021-05-14 13:38:06:303
-0.9371,-10.276,0.7507,-3.4141,-9.1706,-0.6438,2.6237,-2.5026,1.3641,0.2889,0.1368,0.5855,48515,2021-05-14 13:38:06:803
-2.7446,-0.1107,-1.4279,-3.0635,-3.689,-8.5543,1.5983,3.7712,6.7132,-0.4774,0.2453,1.0785,49015,2021-05-14 13:38:07:303
-1.1025,-9.7875,1.4186,-3.2541,-8.9066,-2.5009,0.7237,-1.0378,-3.6444,-0.332,-0.3022,0.0333,49515,2021-05-14 13:38:07:803
-4.6959,-10.1013,7.3585,-2.9056,-7.8544,-5.1026,1.3927,0.3661,-0.6468,-0.957,2.2523,0.4526,50015,2021-05-14 13:38:08:303
-12.2779,3.7056,16.2909,-1.0208,-9.7312,-0.6567,-6.2932,10.8473,5.9868,1.18,3.6878,-1.5771,50515,2021-05-14 13:38:08:803
-0.9203,-1.6618,-2.249,-1.136,-9.4522,-2.3529,1.11,8.6672,-1.0591,1.7121,0.2463,0.1469,51016,2021-05-14 13:38:09:304
0.1977,-9.8904,-4.6193,-0.7623,-9.747,-0.765,2.921,0.0075,-1.7454,0.3018,-0.2167,0.4856,51516,2021-05-14 13:38:09:804
0.7699,6.6933,2.6515,-2.129,-5.6756,-7.7088,-4.6774,-4.8093,2.4047,-3.3858,-0.2883,1.0282,52015,2021-05-14 13:38:10:303
-1.1767,-2.5238,-1.0041,-0.5081,-9.5403,-2.2126,4.5241,-42.6441,-7.364,-1.2977,4.3992,-0.7878,52515,2021-05-14 13:38:10:803
-8.5528,-60.1475,24.699,-1.634,-9.62,-0.978,-2.7401,-9.7829,-20.4205,-1.8112,0.7736,2.6827,53015,2021-05-14 13:38:11:303
0.1164,-4.6499,-1.8159,-1.9251,-9.1022,-3.1008,-0.2916,8.453,2.1521,-2.282,-2.9618,0.3789,53515,2021-05-14 13:38:11:803
-4.8849,-26.9988,-31.4928,-1.5863,-9.6347,-0.909,2.7522,6.6573,4.2697,-0.5997,-0.976,0.2533,54015,2021-05-14 13:38:12:303
0.3054,-11.9064,-0.0392,-0.2487,-9.4826,-2.4876,-0.1794,-2.3791,-0.085,0.8025,0.5499,0.2408,54515,2021-05-14 13:38:12:803
-2.0025,-10.398,-0.3242,-1.77,-8.1055,-5.2286,-0.1356,-0.0537,-6.2296,0.3935,-0.4067,0.7003,55015,2021-05-14 13:38:13:303
-6.2474,-19.8189,-6.4938,-1.2448,-9.04,-3.5916,-0.5673,-2.1272,0.7769,3.9745,-0.2582,-1.7692,55515,2021-05-14 13:38:13:803
-1.1192,0.0188,-0.1304,1.2253,-9.5717,-1.7468,-1.9981,10.6852,5.1492,-0.0823,1.0887,-0.4546,56014,2021-05-14 13:38:14:302
-0.9945,1.558,1.378,0.8422,-9.7389,-0.7844,-3.125,11.3004,3.4865,0.2469,0.7568,0.3335,56515,2021-05-14 13:38:14:803
-3.2163,1.7617,-7.9756,-0.8141,-9.6237,-1.7008,-0.0183,9.7054,-3.6449,3.4869,-1.5369,0.2288,57015,2021-05-14 13:38:15:303
-0.4223,0.3203,1.0836,-0.8014,-9.7425,0.7819,-0.2603,10.9148,-2.606,2.3574,-1.239,-0.4517,57515,2021-05-14 13:38:15:803
0.382,-0.9628,-0.0583,-0.2009,-9.7195,1.289,-4.2185,5.366,-13.4307,1.4871,-2.7677,0.5168,58016,2021-05-14 13:38:16:304
1.9765,-6.0144,-0.1158,-1.0353,-9.6635,1.3096,-1.2945,-14.6093,-8.6766,3.8205,-0.3413,-1.0835,58515,2021-05-14 13:38:16:803
1.9119,-2.9931,-0.463,-1.9656,-9.509,-1.3734,-8.9987,-42.1525,-13.411,-2.3808,-1.8067,1.5865,59015,2021-05-14 13:38:17:303
-15.2851,-14.1999,-8.4257,-0.8923,-9.5422,-2.0788,-7.551,-5.1023,-7.3941,3.2085,-1.3411,-0.0367,59515,2021-05-14 13:38:17:803
1.5048,-9,1.5912,-2.4999,-8.5006,-4.2024,-1.8585,-37.8969,-15.3258,-3.5964,-2.9812,0.6808,60015,2021-05-14 13:38:18:303
-8.1242,-2.7511,-0.542,-0.5165,-9.7697,-0.6764,-6.9373,-41.7629,-8.9221,0.1541,-2.2562,0.3763,60515,2021-05-14 13:38:18:803
2.7568,-6.8572,2.1969,-1.7903,-9.2006,-2.8834,-0.9406,2.9107,-3.1427,2.6167,0.4157,-2.1444,61016,2021-05-14 13:38:19:304
-4.8682,-78.3186,6.5515,-2.0249,-9.035,-3.2308,5.2356,-35.8417,-5.6639,2.6958,1.5216,-1.1597,61515,2021-05-14 13:38:19:803
-2.1918,-7.2832,9.8483,-0.6686,-8.7669,-4.3434,-4.486,-1.2766,6.5224,-1.9468,0.9949,-1.1898,62015,2021-05-14 13:38:20:303
-0.8605,-7.573,1.4474,-0.3126,-9.7684,-0.8072,0.0063,-0.7626,0.1254,0.8327,0.443,-0.1449,62515,2021-05-14 13:38:20:803
-1.6217,-6.1029,-2.4933,-2.1657,-7.4461,-6.0029,0.7225,-9.2024,4.7823,-1.4708,1.1936,0.7781,63018,2021-05-14 13:38:21:306
4.6388,-0.6829,4.0379,-1.0373,-9.6335,-1.5134,0.1966,10.3459,-8.0474,-1.8686,0.0076,0.5279,63515,2021-05-14 13:38:21:803
-12.5749,-12.8088,-16.1731,-2.5224,-9.2877,-1.8833,-3.1231,-48.9335,0.5169,-4.332,2.16,1.8217,64015,2021-05-14 13:38:22:303
-3.6233,-5.5307,1.6558,-2.0259,-8.7273,-3.9875,2.0739,-1.0297,6.118,1.7334,-0.0848,-1.6989,64515,2021-05-14 13:38:22:803
-6.0772,-14.8534,-14.4494,-2.714,-6.5525,-6.7727,-1.9331,-5.3351,5.9388,-3.98,-1.5085,-0.4568,65019,2021-05-14 13:38:23:307
0.9374,-12.8231,-5.2944,-3.3653,-8.5884,-3.3292,-11.1601,-3.8243,-7.1406,1.952,-0.3395,-0.877,65515,2021-05-14 13:38:23:803
-2.8884,-3.9461,-0.1424,-2.0442,-8.1085,-5.1228,-0.2351,1.741,0.2119,-2.4112,2.9907,0.578,66014,2021-05-14 13:38:24:302
-5.9551,-4.4294,2.5439,0.3187,-9.6887,-1.4829,-2.5134,9.1962,4.1874,-0.9885,-0.224,-0.8176,66516,2021-05-14 13:38:24:804
-2.7159,0.6078,2.6659,-0.0617,-9.7966,-0.4402,-1.0688,10.0772,1.5376,-0.8314,-1.1753,0.1416,67015,2021-05-14 13:38:25:303
-1.6819,1.4862,-1.0113,0.1464,-9.7899,-0.5535,-2.2624,10.3876,-1.3173,1.58,-0.2011,-1.0178,67514,2021-05-14 13:38:25:802
-3.4869,1.9866,1.366,0.4167,-9.5231,-2.3036,-2.1122,8.9327,0.7466,0.347,1.2376,-1.3086,68015,2021-05-14 13:38:26:303
-10.389,-18.1095,-3.4268,-1.9788,-9.44,-1.7724,3.1072,-6.0461,-2.5099,-4.24,-0.6167,0.921,68515,2021-05-14 13:38:26:803
-3.6592,-2.1072,1.8425,-1.6668,-8.6803,-4.2478,-0.7633,-0.248,-8.5961,3.858,0.1258,-1.8359,69015,2021-05-14 13:38:27:303
-11.9644,-2.907,18.8955,2.0001,-8.822,-3.787,-0.4974,8.823,2.5852,-1.8567,0.1651,-1.5708,69515,2021-05-14 13:38:27:803
-1.8182,1.1847,2.5822,-0.5726,-9.7874,-0.2237,-2.5722,11.1881,-2.1969,2.9279,0.1513,-1.8869,70015,2021-05-14 13:38:28:303
0.2384,-0.2638,-0.5731,-1.5755,-9.642,0.8486,1.8591,8.8984,-1.6239,2.2346,1.0508,0.3526,70515,2021-05-14 13:38:28:803
1.124,-9.1149,-2.036,-2.71,-8.4972,-4.0773,3.2905,-5.4449,0.8859,-2.606,-2.3325,-0.3836,71015,2021-05-14 13:38:29:303
-2.266,-8.3462,-1.3801,-2.037,-9.3612,-2.0949,0.8664,-3.4158,-3.7202,3.7063,-0.9746,-0.9331,71515,2021-05-14 13:38:29:803
-1.9881,-7.6065,2.053,-1.7485,-9.648,0.1735,-2.8658,-0.9842,-6.4262,0.8049,0.0249,-0.6021,72015,2021-05-14 13:38:30:303
2.9701,-14.7841,-14.6025,-2.4865,-8.3873,-4.4319,2.0302,0.2137,7.6081,-1.7687,-0.117,-0.352,72515,2021-05-14 13:38:30:803
3.8797,-1.7506,-3.676,-1.2079,-9.3618,-2.6585,-0.2126,0.9884,4.8511,0.2318,2.1076,-0.7906,73014,2021-05-14 13:38:31:302
0.8584,-8.8035,-12.3281,-2.5219,-8.6388,-3.8963,7.1925,1.2917,3.7885,0.897,-3.1518,0.6571,73515,2021-05-14 13:38:31:803
-2.0192,-14.8128,-4.4994,0.1706,-9.416,-2.7349,-3.991,-4.8765,-0.2495,-3.0533,1.78,-0.0713,74015,2021-05-14 13:38:32:303
4.337,1.7928,-3.4914,8.5552,2.636,-4.0037,-3.6375,6.0358,0.2165,1.1421,0.2297,3.4348,74515,2021-05-14 13:38:32:803
3.9215,-1.2634,8.3258,8.8999,-3.3854,2.3455,6.0116,8.831,9.7894,-3.2838,2.7676,-0.5644,75014,2021-05-14 13:38:33:302
-0.0191,2.8857,10.1931,1.0626,1.965,9.5488,0.6935,-0.6077,-3.8111,-0.565,0.9134,0.9395,75515,2021-05-14 13:38:33:803
0.7663,4.0038,9.1971,0.1146,3.1284,9.2936,0.8813,1.2478,-1.88,-0.0748,-0.0909,-0.8746,76014,2021-05-14 13:38:34:302
-3.7741,4.5413,9.9559,-3.7116,3.5964,8.3343,-2.0179,0.7064,-4.6696,-1.6924,2.3302,-0.4038,76515,2021-05-14 13:38:34:803
-3.5898,3.0508,8.0755,-2.8499,4.3273,8.326,-7.3959,-0.3274,-3.6095,-0.002,-3.297,-0.283,77015,2021-05-14 13:38:35:303
-4.0376,4.3029,6.5109,-4.0322,5.9852,6.64,0.0633,-1.7298,-0.1777,1.0307,-0.3097,-0.688,77515,2021-05-14 13:38:35:803
1.3899,-0.8348,14.828,2.713,2.6198,9.0524,-3.9762,0.2314,3.383,-0.3996,-2.1195,0.3343,78015,2021-05-14 13:38:36:303
1.5586,4.3101,11.3722,2.3632,4.3921,8.4437,-0.694,-1.0859,1.6107,-3.9015,-0.1782,-0.9134,78514,2021-05-14 13:38:36:802
-0.6607,5.8316,9.6844,-1.267,7.2168,6.5178,1.2836,-1.2231,0.0777,-0.3337,-1.4569,-1.2422,79015,2021-05-14 13:38:37:303
-2.892,7.4812,8.5101,-3.0531,7.1258,6.006,1.6587,0.9285,-0.3894,-0.0205,-0.2782,-0.6854,79515,2021-05-14 13:38:37:803
-0.46,2.8077,8.9315,0.0482,2.1695,9.5635,-0.5091,0.4782,-0.1981,-0.2981,-0.6058,-0.132,27,2021-05-16 14:45:52:631
-0.1108,2.4223,9.3952,0.1589,1.8324,9.6326,-1.1297,0.9231,0.2132,0.0681,0.0341,-0.1373,527,2021-05-16 14:45:53:131
-2.6777,3.6389,9.3683,-4.1708,4.2122,7.8122,-1.5758,-1.6821,1.4059,0.1852,1.6002,-0.3609,1027,2021-05-16 14:45:53:631
-3.4501,1.4021,13.0183,-1.4591,-0.0119,9.6974,-1.0709,2.1694,3.0413,-1.3053,-1.186,-1.5044,1527,2021-05-16 14:45:54:131
-8.0015,1.608,2.8241,-6.4474,1.204,7.2904,-3.5945,0.9239,-1.4064,-0.0916,1.1701,1.4415,2026,2021-05-16 14:45:54:630
-13.9133,-0.6275,-9.8938,-8.064,4.7255,2.9681,-2.1962,-5.2693,-6.3966,1.9206,10.375,-0.8698,2526,2021-05-16 14:45:55:130
-5.6256,4.7777,-4.2452,-6.6399,5.9544,-4.0775,0.4342,-0.4994,-0.0922,-0.9369,-0.8496,0.4035,3026,2021-05-16 14:45:55:630
-5.7934,6.393,-4.8244,-5.5632,7.2241,-3.6099,0.4807,-0.383,-0.4814,-0.0511,0.1224,0.2076,3526,2021-05-16 14:45:56:130
-5.4993,6.6396,-2.4804,-5.5921,7.3151,-3.3743,0.0483,-1.7456,-0.093,0.0224,-0.4727,-0.0692,4026,2021-05-16 14:45:56:630
-6.1558,2.9736,-5.2418,-7.3417,5.8405,-2.8561,1.8226,-2.0591,-1.8217,0.5621,-1.7471,-0.5877,4526,2021-05-16 14:45:57:130
-10.1806,-0.5987,8.467,-8.7314,-0.7459,4.4018,-0.1534,-0.2935,2.1391,-0.2353,0.8368,-0.0713,5026,2021-05-16 14:45:57:630
-12.9254,-9.5417,1.0902,-6.1818,-7.4323,1.6475,-2.324,0.6769,0.5669,-1.7503,-0.6196,0.1171,5526,2021-05-16 14:45:58:130
-4.9677,-9.4486,-0.218,-5.1288,-7.6492,3.3695,0.1447,-0.3303,3.2749,0.824,-3.3068,-2.2006,6026,2021-05-16 14:45:58:630
1.1483,-7.7592,3.3111,2.1676,-8.9889,3.2665,-0.67,0.1002,-1.9116,0.5398,2.9044,1.1402,6526,2021-05-16 14:45:59:130
0.7846,-8.785,3.5069,0.0078,-8.9626,3.9801,0.7062,0.1604,-0.3839,-0.0075,-0.2289,-0.1597,7026,2021-05-16 14:45:59:630
0.3107,-10.7729,1.9395,0.7437,-9.3737,2.7837,-2.7813,-1.0229,0.1633,-0.5781,0.2236,0.3268,7526,2021-05-16 14:46:00:130
-2.9732,-9.4132,-1.554,0.74,-9.7192,1.0767,-2.9462,0.6337,-2.3572,-0.6633,-1.6385,0.1661,8027,2021-05-16 14:46:00:631
-0.1272,-10.2267,0.4405,-1.6852,-9.2939,2.6368,3.1534,-1.6518,-1.7192,-0.3503,-0.4024,2.2198,8526,2021-05-16 14:46:01:130
0.6903,-4.2125,-4.4137,-3.4234,-9.0488,1.6023,0.7645,1.3365,-6.3821,-1.0359,1.0125,-1.2605,9026,2021-05-16 14:46:01:630
-2.138,-14.149,3.0211,-1.3552,-9.5426,-1.8089,-0.9001,-4.7177,3.8642,3.0875,-0.8773,1.5129,9526,2021-05-16 14:46:02:130
-0.2076,-0.3201,4.501,-5.5536,-1.6021,7.9221,4.4479,1.1793,-4.6305,-1.0338,0.3205,-0.3332,10026,2021-05-16 14:46:02:630
-3.8617,-4.2657,-8.5516,-2.5887,-9.4345,0.6772,1.4037,-13.5445,6.6633,0.7644,0.0639,-0.4301,10527,2021-05-16 14:46:03:131
-3.3753,-8.6183,-0.4026,-2.1623,-9.4744,-1.3147,1.3809,0.4525,0.3972,-0.3513,0.4844,-0.1278,11026,2021-05-16 14:46:03:630
-3.4315,-10.9735,-1.0924,-4.1851,-8.0324,3.7597,-1.274,-3.7416,3.2476,1.0455,-0.4599,2.3092,11526,2021-05-16 14:46:04:130
-7.1975,-18.0674,14.0342,-5.374,-7.2361,3.8636,3.7461,-2.2861,-1.5002,0.1331,4.2554,-0.8719,12026,2021-05-16 14:46:04:630
-0.4581,-9.7002,2.6648,-1.4441,-9.3575,-2.5536,-0.9878,-0.4196,6.0055,-0.9869,0.5302,-0.2353,12526,2021-05-16 14:46:05:130
0.7033,-5.4296,1.6878,-3.4109,-8.8099,2.6305,4.2641,3.3476,-0.728,0.6654,-0.2662,0.412,13026,2021-05-16 14:46:05:630
-8.0943,-9.9085,2.5801,-2.8914,-9.3691,-0.1684,-3.6397,-1.8986,0.5607,0.3982,2.4008,-0.7005,13526,2021-05-16 14:46:06:130
-2.6607,-8.5403,-2.747,-1.4116,-9.7037,-0.1181,-4.4134,0.1226,-1.9706,1.8291,2.4551,-0.7442,14026,2021-05-16 14:46:06:630
-3.5064,-9.7944,0.3484,-1.758,-9.6358,-0.4789,-2.7627,-0.2394,0.0082,-0.1182,1.4,-0.1778,14526,2021-05-16 14:46:07:130
-6.5861,-4.9677,-0.97,-3.197,-9.1094,1.7227,-5.0307,8.7563,0.621,-1.2094,0.3056,-0.2193,15026,2021-05-16 14:46:07:630
1.1125,-0.9859,-1.6145,0.9877,3.9092,-8.9393,-0.1247,-5.9686,6.6936,0.3897,-2.5743,0.2183,15526,2021-05-16 14:46:08:130
-0.1135,4.8169,-9.2834,-1.8728,-1.9159,-9.4335,1.9022,7.6626,0.3722,-0.6792,-2.8181,0.33,16027,2021-05-16 14:46:08:631
0.5638,0.7538,-0.9877,-3.8354,-2.6586,-8.625,6.287,11.563,7.3502,-0.3471,-1.6119,0.1373,16526,2021-05-16 14:46:09:130
10.792,-10.9799,16.7696,-4.1807,-3.5751,-8.1184,4.9849,1.8001,9.3148,1.185,-10.3963,-1.4788,17026,2021-05-16 14:46:09:630
0.6205,-1.1097,-4.7807,-0.7628,-6.2439,-7.5233,0.0273,17.6785,-0.7632,3.1152,0.6111,-1.3244,17526,2021-05-16 14:46:10:130
0.866,-36.1162,2.8051,-1.4117,-6.549,-7.1614,1.3333,5.9018,7.9362,0.741,8.0094,-0.1256,77365,2021-05-16 14:47:09:969
0.866,-36.1162,2.8051,-1.4117,-6.549,-7.1614,1.3333,5.9018,7.9362,0.741,8.0094,-0.1256,77368,2021-05-16 14:47:09:972
0.866,-36.1162,2.8051,-1.4117,-6.549,-7.1614,1.3333,5.9018,7.9362,0.741,8.0094,-0.1256,77368,2021-05-16 14:47:09:972
0.866,-36.1162,2.8051,-1.4117,-6.549,-7.1614,1.3333,5.9018,7.9362,0.741,8.0094,-0.1256,77368,2021-05-16 14:47:09:972
0.866,-36.1162,2.8051,-1.4117,-6.549,-7.1614,1.3333,5.9018,7.9362,0.741,8.0094,-0.1256,77368,2021-05-16 14:47:09:972
0.866,-36.1162,2.8051,-1.4117,-6.549,-7.1614,1.3333,5.9018,7.9362,0.741,8.0094,-0.1256,77368,2021-05-16 14:47:09:972
0.866,-36.1162,2.8051,-1.4117,-6.549,-7.1614,1.3333,5.9018,7.9362,0.741,8.0094,-0.1256,77369,2021-05-16 14:47:09:973
0.866,-36.1162,2.8051,-1.4117,-6.549,-7.1614,1.3333,5.9018,7.9362,0.741,8.0094,-0.1256,77369,2021-05-16 14:47:09:973
0.866,-36.1162,2.8051,-1.4117,-6.549,-7.1614,1.3333,5.9018,7.9362,0.741,8.0094,-0.1256,77369,2021-05-16 14:47:09:973
0.866,-36.1162,2.8051,-1.4117,-6.549,-7.1614,1.3333,5.9018,7.9362,0.741,8.0094,-0.1256,77369,2021-05-16 14:47:09:973
0.866,-36.1162,2.8051,-1.4117,-6.549,-7.1614,1.3333,5.9018,7.9362,0.741,8.0094,-0.1256,77369,2021-05-16 14:47:09:973
0.866,-36.1162,2.8051,-1.4117,-6.549,-7.1614,1.3333,5.9018,7.9362,0.741,8.0094,-0.1256,77369,2021-05-16 14:47:09:973
0.866,-36.1162,2.8051,-1.4117,-6.549,-7.1614,1.3333,5.9018,7.9362,0.741,8.0094,-0.1256,77370,2021-05-16 14:47:09:974
0.866,-36.1162,2.8051,-1.4117,-6.549,-7.1614,1.3333,5.9018,7.9362,0.741,8.0094,-0.1256,77370,2021-05-16 14:47:09:974
0.866,-36.1162,2.8051,-1.4117,-6.549,-7.1614,1.3333,5.9018,7.9362,0.741,8.0094,-0.1256,77370,2021-05-16 14:47:09:974
0.866,-36.1162,2.8051,-1.4117,-6.549,-7.1614,1.3333,5.9018,7.9362,0.741,8.0094,-0.1256,77370,2021-05-16 14:47:09:974
0.866,-36.1162,2.8051,-1.4117,-6.549,-7.1614,1.3333,5.9018,7.9362,0.741,8.0094,-0.1256,77370,2021-05-16 14:47:09:974
0.866,-36.1162,2.8051,-1.4117,-6.549,-7.1614,1.3333,5.9018,7.9362,0.741,8.0094,-0.1256,77371,2021-05-16 14:47:09:975
0.866,-36.1162,2.8051,-1.4117,-6.549,-7.1614,1.3333,5.9018,7.9362,0.741,8.0094,-0.1256,77371,2021-05-16 14:47:09:975
0.866,-36.1162,2.8051,-1.4117,-6.549,-7.1614,1.3333,5.9018,7.9362,0.741,8.0094,-0.1256,77371,2021-05-16 14:47:09:975
0.866,-36.1162,2.8051,-1.4117,-6.549,-7.1614,1.3333,5.9018,7.9362,0.741,8.0094,-0.1256,77371,2021-05-16 14:47:09:975
0.866,-36.1162,2.8051,-1.4117,-6.549,-7.1614,1.3333,5.9018,7.9362,0.741,8.0094,-0.1256,77371,2021-05-16 14:47:09:975
0.866,-36.1162,2.8051,-1.4117,-6.549,-7.1614,1.3333,5.9018,7.9362,0.741,8.0094,-0.1256,77372,2021-05-16 14:47:09:976
0.866,-36.1162,2.8051,-1.4117,-6.549,-7.1614,1.3333,5.9018,7.9362,0.741,8.0094,-0.1256,77372,2021-05-16 14:47:09:976
0.866,-36.1162,2.8051,-1.4117,-6.549,-7.1614,1.3333,5.9018,7.9362,0.741,8.0094,-0.1256,77372,2021-05-16 14:47:09:976
0.866,-36.1162,2.8051,-1.4117,-6.549,-7.1614,1.3333,5.9018,7.9362,0.741,8.0094,-0.1256,77373,2021-05-16 14:47:09:977
0.866,-36.1162,2.8051,-1.4117,-6.549,-7.1614,1.3333,5.9018,7.9362,0.741,8.0094,-0.1256,77373,2021-05-16 14:47:09:977
0.866,-36.1162,2.8051,-1.4117,-6.549,-7.1614,1.3333,5.9018,7.9362,0.741,8.0094,-0.1256,77373,2021-05-16 14:47:09:977
0.866,-36.1162,2.8051,-1.4117,-6.549,-7.1614,1.3333,5.9018,7.9362,0.741,8.0094,-0.1256,77374,2021-05-16 14:47:09:978
0.866,-36.1162,2.8051,-1.4117,-6.549,-7.1614,1.3333,5.9018,7.9362,0.741,8.0094,-0.1256,77374,2021-05-16 14:47:09:978
0.866,-36.1162,2.8051,-1.4117,-6.549,-7.1614,1.3333,5.9018,7.9362,0.741,8.0094,-0.1256,77374,2021-05-16 14:47:09:978
0.866,-36.1162,2.8051,-1.4117,-6.549,-7.1614,1.3333,5.9018,7.9362,0.741,8.0094,-0.1256,77374,2021-05-16 14:47:09:978
0.866,-36.1162,2.8051,-1.4117,-6.549,-7.1614,1.3333,5.9018,7.9362,0.741,8.0094,-0.1256,77375,2021-05-16 14:47:09:979
0.866,-36.1162,2.8051,-1.4117,-6.549,-7.1614,1.3333,5.9018,7.9362,0.741,8.0094,-0.1256,77375,2021-05-16 14:47:09:979
0.866,-36.1162,2.8051,-1.4117,-6.549,-7.1614,1.3333,5.9018,7.9362,0.741,8.0094,-0.1256,77375,2021-05-16 14:47:09:979
0.866,-36.1162,2.8051,-1.4117,-6.549,-7.1614,1.3333,5.9018,7.9362,0.741,8.0094,-0.1256,77376,2021-05-16 14:47:09:980
0.866,-36.1162,2.8051,-1.4117,-6.549,-7.1614,1.3333,5.9018,7.9362,0.741,8.0094,-0.1256,77376,2021-05-16 14:47:09:980
0.866,-36.1162,2.8051,-1.4117,-6.549,-7.1614,1.3333,5.9018,7.9362,0.741,8.0094,-0.1256,77376,2021-05-16 14:47:09:980
0.866,-36.1162,2.8051,-1.4117,-6.549,-7.1614,1.3333,5.9018,7.9362,0.741,8.0094,-0.1256,77376,2021-05-16 14:47:09:980
0.866,-36.1162,2.8051,-1.4117,-6.549,-7.1614,1.3333,5.9018,7.9362,0.741,8.0094,-0.1256,77377,2021-05-16 14:47:09:981
0.866,-36.1162,2.8051,-1.4117,-6.549,-7.1614,1.3333,5.9018,7.9362,0.741,8.0094,-0.1256,77377,2021-05-16 14:47:09:981
0.866,-36.1162,2.8051,-1.4117,-6.549,-7.1614,1.3333,5.9018,7.9362,0.741,8.0094,-0.1256,77378,2021-05-16 14:47:09:982
0.866,-36.1162,2.8051,-1.4117,-6.549,-7.1614,1.3333,5.9018,7.9362,0.741,8.0094,-0.1256,77378,2021-05-16 14:47:09:982
0.866,-36.1162,2.8051,-1.4117,-6.549,-7.1614,1.3333,5.9018,7.9362,0.741,8.0094,-0.1256,77378,2021-05-16 14:47:09:982
0.866,-36.1162,2.8051,-1.4117,-6.549,-7.1614,1.3333,5.9018,7.9362,0.741,8.0094,-0.1256,77379,2021-05-16 14:47:09:983
0.866,-36.1162,2.8051,-1.4117,-6.549,-7.1614,1.3333,5.9018,7.9362,0.741,8.0094,-0.1256,77379,2021-05-16 14:47:09:983
0.866,-36.1162,2.8051,-1.4117,-6.549,-7.1614,1.3333,5.9018,7.9362,0.741,8.0094,-0.1256,77379,2021-05-16 14:47:09:983
0.866,-36.1162,2.8051,-1.4117,-6.549,-7.1614,1.3333,5.9018,7.9362,0.741,8.0094,-0.1256,77380,2021-05-16 14:47:09:984
0.866,-36.1162,2.8051,-1.4117,-6.549,-7.1614,1.3333,5.9018,7.9362,0.741,8.0094,-0.1256,77380,2021-05-16 14:47:09:984
0.866,-36.1162,2.8051,-1.4117,-6.549,-7.1614,1.3333,5.9018,7.9362,0.741,8.0094,-0.1256,77381,2021-05-16 14:47:09:985
0.866,-36.1162,2.8051,-1.4117,-6.549,-7.1614,1.3333,5.9018,7.9362,0.741,8.0094,-0.1256,77381,2021-05-16 14:47:09:985
0.866,-36.1162,2.8051,-1.4117,-6.549,-7.1614,1.3333,5.9018,7.9362,0.741,8.0094,-0.1256,77388,2021-05-16 14:47:09:992
0.866,-36.1162,2.8051,-1.4117,-6.549,-7.1614,1.3333,5.9018,7.9362,0.741,8.0094,-0.1256,77388,2021-05-16 14:47:09:992
0.866,-36.1162,2.8051,-1.4117,-6.549,-7.1614,1.3333,5.9018,7.9362,0.741,8.0094,-0.1256,77388,2021-05-16 14:47:09:992
0.866,-36.1162,2.8051,-1.4117,-6.549,-7.1614,1.3333,5.9018,7.9362,0.741,8.0094,-0.1256,77389,2021-05-16 14:47:09:993
0.866,-36.1162,2.8051,-1.4117,-6.549,-7.1614,1.3333,5.9018,7.9362,0.741,8.0094,-0.1256,77389,2021-05-16 14:47:09:993
0.866,-36.1162,2.8051,-1.4117,-6.549,-7.1614,1.3333,5.9018,7.9362,0.741,8.0094,-0.1256,77389,2021-05-16 14:47:09:993
0.866,-36.1162,2.8051,-1.4117,-6.549,-7.1614,1.3333,5.9018,7.9362,0.741,8.0094,-0.1256,77389,2021-05-16 14:47:09:993
0.866,-36.1162,2.8051,-1.4117,-6.549,-7.1614,1.3333,5.9018,7.9362,0.741,8.0094,-0.1256,77390,2021-05-16 14:47:09:994
0.866,-36.1162,2.8051,-1.4117,-6.549,-7.1614,1.3333,5.9018,7.9362,0.741,8.0094,-0.1256,77390,2021-05-16 14:47:09:994
0.866,-36.1162,2.8051,-1.4117,-6.549,-7.1614,1.3333,5.9018,7.9362,0.741,8.0094,-0.1256,77390,2021-05-16 14:47:09:994
0.866,-36.1162,2.8051,-1.4117,-6.549,-7.1614,1.3333,5.9018,7.9362,0.741,8.0094,-0.1256,77390,2021-05-16 14:47:09:994
0.866,-36.1162,2.8051,-1.4117,-6.549,-7.1614,1.3333,5.9018,7.9362,0.741,8.0094,-0.1256,77391,2021-05-16 14:47:09:995
0.866,-36.1162,2.8051,-1.4117,-6.549,-7.1614,1.3333,5.9018,7.9362,0.741,8.0094,-0.1256,77391,2021-05-16 14:47:09:995
0.866,-36.1162,2.8051,-1.4117,-6.549,-7.1614,1.3333,5.9018,7.9362,0.741,8.0094,-0.1256,77396,2021-05-16 14:47:10:000
0.866,-36.1162,2.8051,-1.4117,-6.549,-7.1614,1.3333,5.9018,7.9362,0.741,8.0094,-0.1256,77397,2021-05-16 14:47:10:001
0.866,-36.1162,2.8051,-1.4117,-6.549,-7.1614,1.3333,5.9018,7.9362,0.741,8.0094,-0.1256,77397,2021-05-16 14:47:10:001
0.866,-36.1162,2.8051,-1.4117,-6.549,-7.1614,1.3333,5.9018,7.9362,0.741,8.0094,-0.1256,77397,2021-05-16 14:47:10:001
0.866,-36.1162,2.8051,-1.4117,-6.549,-7.1614,1.3333,5.9018,7.9362,0.741,8.0094,-0.1256,77398,2021-05-16 14:47:10:002
0.866,-36.1162,2.8051,-1.4117,-6.549,-7.1614,1.3333,5.9018,7.9362,0.741,8.0094,-0.1256,77398,2021-05-16 14:47:10:002
0.866,-36.1162,2.8051,-1.4117,-6.549,-7.1614,1.3333,5.9018,7.9362,0.741,8.0094,-0.1256,77398,2021-05-16 14:47:10:002
0.866,-36.1162,2.8051,-1.4117,-6.549,-7.1614,1.3333,5.9018,7.9362,0.741,8.0094,-0.1256,77399,2021-05-16 14:47:10:003
0.866,-36.1162,2.8051,-1.4117,-6.549,-7.1614,1.3333,5.9018,7.9362,0.741,8.0094,-0.1256,77399,2021-05-16 14:47:10:003
0.866,-36.1162,2.8051,-1.4117,-6.549,-7.1614,1.3333,5.9018,7.9362,0.741,8.0094,-0.1256,77399,2021-05-16 14:47:10:003
0.866,-36.1162,2.8051,-1.4117,-6.549,-7.1614,1.3333,5.9018,7.9362,0.741,8.0094,-0.1256,77400,2021-05-16 14:47:10:004
0.866,-36.1162,2.8051,-1.4117,-6.549,-7.1614,1.3333,5.9018,7.9362,0.741,8.0094,-0.1256,77400,2021-05-16 14:47:10:004
0.866,-36.1162,2.8051,-1.4117,-6.549,-7.1614,1.3333,5.9018,7.9362,0.741,8.0094,-0.1256,77400,2021-05-16 14:47:10:004
0.866,-36.1162,2.8051,-1.4117,-6.549,-7.1614,1.3333,5.9018,7.9362,0.741,8.0094,-0.1256,77401,2021-05-16 14:47:10:005
0.866,-36.1162,2.8051,-1.4117,-6.549,-7.1614,1.3333,5.9018,7.9362,0.741,8.0094,-0.1256,77401,2021-05-16 14:47:10:005
0.866,-36.1162,2.8051,-1.4117,-6.549,-7.1614,1.3333,5.9018,7.9362,0.741,8.0094,-0.1256,77401,2021-05-16 14:47:10:005
0.866,-36.1162,2.8051,-1.4117,-6.549,-7.1614,1.3333,5.9018,7.9362,0.741,8.0094,-0.1256,77401,2021-05-16 14:47:10:005
0.866,-36.1162,2.8051,-1.4117,-6.549,-7.1614,1.3333,5.9018,7.9362,0.741,8.0094,-0.1256,77402,2021-05-16 14:47:10:006
0.866,-36.1162,2.8051,-1.4117,-6.549,-7.1614,1.3333,5.9018,7.9362,0.741,8.0094,-0.1256,77402,2021-05-16 14:47:10:006
0.866,-36.1162,2.8051,-1.4117,-6.549,-7.1614,1.3333,5.9018,7.9362,0.741,8.0094,-0.1256,77402,2021-05-16 14:47:10:006
0.866,-36.1162,2.8051,-1.4117,-6.549,-7.1614,1.3333,5.9018,7.9362,0.741,8.0094,-0.1256,77402,2021-05-16 14:47:10:006
0.866,-36.1162,2.8051,-1.4117,-6.549,-7.1614,1.3333,5.9018,7.9362,0.741,8.0094,-0.1256,77402,2021-05-16 14:47:10:006
0.866,-36.1162,2.8051,-1.4117,-6.549,-7.1614,1.3333,5.9018,7.9362,0.741,8.0094,-0.1256,77402,2021-05-16 14:47:10:006
0.866,-36.1162,2.8051,-1.4117,-6.549,-7.1614,1.3333,5.9018,7.9362,0.741,8.0094,-0.1256,77403,2021-05-16 14:47:10:007
0.866,-36.1162,2.8051,-1.4117,-6.549,-7.1614,1.3333,5.9018,7.9362,0.741,8.0094,-0.1256,77403,2021-05-16 14:47:10:007
0.866,-36.1162,2.8051,-1.4117,-6.549,-7.1614,1.3333,5.9018,7.9362,0.741,8.0094,-0.1256,77403,2021-05-16 14:47:10:007
0.866,-36.1162,2.8051,-1.4117,-6.549,-7.1614,1.3333,5.9018,7.9362,0.741,8.0094,-0.1256,77403,2021-05-16 14:47:10:007
0.866,-36.1162,2.8051,-1.4117,-6.549,-7.1614,1.3333,5.9018,7.9362,0.741,8.0094,-0.1256,77403,2021-05-16 14:47:10:007
0.866,-36.1162,2.8051,-1.4117,-6.549,-7.1614,1.3333,5.9018,7.9362,0.741,8.0094,-0.1256,77403,2021-05-16 14:47:10:007
0.866,-36.1162,2.8051,-1.4117,-6.549,-7.1614,1.3333,5.9018,7.9362,0.741,8.0094,-0.1256,77404,2021-05-16 14:47:10:008
0.866,-36.1162,2.8051,-1.4117,-6.549,-7.1614,1.3333,5.9018,7.9362,0.741,8.0094,-0.1256,77404,2021-05-16 14:47:10:008
0.866,-36.1162,2.8051,-1.4117,-6.549,-7.1614,1.3333,5.9018,7.9362,0.741,8.0094,-0.1256,77404,2021-05-16 14:47:10:008
0.866,-36.1162,2.8051,-1.4117,-6.549,-7.1614,1.3333,5.9018,7.9362,0.741,8.0094,-0.1256,77404,2021-05-16 14:47:10:008
0.866,-36.1162,2.8051,-1.4117,-6.549,-7.1614,1.3333,5.9018,7.9362,0.741,8.0094,-0.1256,77404,2021-05-16 14:47:10:008
0.866,-36.1162,2.8051,-1.4117,-6.549,-7.1614,1.3333,5.9018,7.9362,0.741,8.0094,-0.1256,77404,2021-05-16 14:47:10:008
0.866,-36.1162,2.8051,-1.4117,-6.549,-7.1614,1.3333,5.9018,7.9362,0.741,8.0094,-0.1256,77404,2021-05-16 14:47:10:008
0.866,-36.1162,2.8051,-1.4117,-6.549,-7.1614,1.3333,5.9018,7.9362,0.741,8.0094,-0.1256,77405,2021-05-16 14:47:10:009
0.866,-36.1162,2.8051,-1.4117,-6.549,-7.1614,1.3333,5.9018,7.9362,0.741,8.0094,-0.1256,77405,2021-05-16 14:47:10:009
0.866,-36.1162,2.8051,-1.4117,-6.549,-7.1614,1.3333,5.9018,7.9362,0.741,8.0094,-0.1256,77405,2021-05-16 14:47:10:009
0.866,-36.1162,2.8051,-1.4117,-6.549,-7.1614,1.3333,5.9018,7.9362,0.741,8.0094,-0.1256,77405,2021-05-16 14:47:10:009
0.866,-36.1162,2.8051,-1.4117,-6.549,-7.1614,1.3333,5.9018,7.9362,0.741,8.0094,-0.1256,77406,2021-05-16 14:47:10:010
0.866,-36.1162,2.8051,-1.4117,-6.549,-7.1614,1.3333,5.9018,7.9362,0.741,8.0094,-0.1256,77407,2021-05-16 14:47:10:011
0.866,-36.1162,2.8051,-1.4117,-6.549,-7.1614,1.3333,5.9018,7.9362,0.741,8.0094,-0.1256,77407,2021-05-16 14:47:10:011
0.866,-36.1162,2.8051,-1.4117,-6.549,-7.1614,1.3333,5.9018,7.9362,0.741,8.0094,-0.1256,77407,2021-05-16 14:47:10:011
0.866,-36.1162,2.8051,-1.4117,-6.549,-7.1614,1.3333,5.9018,7.9362,0.741,8.0094,-0.1256,77407,2021-05-16 14:47:10:011
0.866,-36.1162,2.8051,-1.4117,-6.549,-7.1614,1.3333,5.9018,7.9362,0.741,8.0094,-0.1256,77408,2021-05-16 14:47:10:012
0.866,-36.1162,2.8051,-1.4117,-6.549,-7.1614,1.3333,5.9018,7.9362,0.741,8.0094,-0.1256,77408,2021-05-16 14:47:10:012
0.866,-36.1162,2.8051,-1.4117,-6.549,-7.1614,1.3333,5.9018,7.9362,0.741,8.0094,-0.1256,77408,2021-05-16 14:47:10:012
0.866,-36.1162,2.8051,-1.4117,-6.549,-7.1614,1.3333,5.9018,7.9362,0.741,8.0094,-0.1256,77408,2021-05-16 14:47:10:012
0.866,-36.1162,2.8051,-1.4117,-6.549,-7.1614,1.3333,5.9018,7.9362,0.741,8.0094,-0.1256,77408,2021-05-16 14:47:10:012
0.866,-36.1162,2.8051,-1.4117,-6.549,-7.1614,1.3333,5.9018,7.9362,0.741,8.0094,-0.1256,77408,2021-05-16 14:47:10:012
0.866,-36.1162,2.8051,-1.4117,-6.549,-7.1614,1.3333,5.9018,7.9362,0.741,8.0094,-0.1256,77409,2021-05-16 14:47:10:013
0.866,-36.1162,2.8051,-1.4117,-6.549,-7.1614,1.3333,5.9018,7.9362,0.741,8.0094,-0.1256,77409,2021-05-16 14:47:10:013
0.866,-36.1162,2.8051,-1.4117,-6.549,-7.1614,1.3333,5.9018,7.9362,0.741,8.0094,-0.1256,77409,2021-05-16 14:47:10:013
0.866,-36.1162,2.8051,-1.4117,-6.549,-7.1614,1.3333,5.9018,7.9362,0.741,8.0094,-0.1256,77409,2021-05-16 14:47:10:013
0.866,-36.1162,2.8051,-1.4117,-6.549,-7.1614,1.3333,5.9018,7.9362,0.741,8.0094,-0.1256,77409,2021-05-16 14:47:10:013
0.866,-36.1162,2.8051,-1.4117,-6.549,-7.1614,1.3333,5.9018,7.9362,0.741,8.0094,-0.1256,77409,2021-05-16 14:47:10:013
0.866,-36.1162,2.8051,-1.4117,-6.549,-7.1614,1.3333,5.9018,7.9362,0.741,8.0094,-0.1256,77410,2021-05-16 14:47:10:014
0.866,-36.1162,2.8051,-1.4117,-6.549,-7.1614,1.3333,5.9018,7.9362,0.741,8.0094,-0.1256,77410,2021-05-16 14:47:10:014
0.866,-36.1162,2.8051,-1.4117,-6.549,-7.1614,1.3333,5.9018,7.9362,0.741,8.0094,-0.1256,77411,2021-05-16 14:47:10:015
0.866,-36.1162,2.8051,-1.4117,-6.549,-7.1614,1.3333,5.9018,7.9362,0.741,8.0094,-0.1256,77411,2021-05-16 14:47:10:015
0.866,-36.1162,2.8051,-1.4117,-6.549,-7.1614,1.3333,5.9018,7.9362,0.741,8.0094,-0.1256,77412,2021-05-16 14:47:10:016
0.866,-36.1162,2.8051,-1.4117,-6.549,-7.1614,1.3333,5.9018,7.9362,0.741,8.0094,-0.1256,77412,2021-05-16 14:47:10:016
0.866,-36.1162,2.8051,-1.4117,-6.549,-7.1614,1.3333,5.9018,7.9362,0.741,8.0094,-0.1256,77412,2021-05-16 14:47:10:016
0.866,-36.1162,2.8051,-1.4117,-6.549,-7.1614,1.3333,5.9018,7.9362,0.741,8.0094,-0.1256,77413,2021-05-16 14:47:10:017
0.866,-36.1162,2.8051,-1.4117,-6.549,-7.1614,1.3333,5.9018,7.9362,0.741,8.0094,-0.1256,77413,2021-05-16 14:47:10:017
0.866,-36.1162,2.8051,-1.4117,-6.549,-7.1614,1.3333,5.9018,7.9362,0.741,8.0094,-0.1256,77414,2021-05-16 14:47:10:018
0.866,-36.1162,2.8051,-1.4117,-6.549,-7.1614,1.3333,5.9018,7.9362,0.741,8.0094,-0.1256,77415,2021-05-16 14:47:10:019
0.866,-36.1162,2.8051,-1.4117,-6.549,-7.1614,1.3333,5.9018,7.9362,0.741,8.0094,-0.1256,77416,2021-05-16 14:47:10:020
0.866,-36.1162,2.8051,-1.4117,-6.549,-7.1614,1.3333,5.9018,7.9362,0.741,8.0094,-0.1256,77416,2021-05-16 14:47:10:020
0.866,-36.1162,2.8051,-1.4117,-6.549,-7.1614,1.3333,5.9018,7.9362,0.741,8.0094,-0.1256,77416,2021-05-16 14:47:10:020
0.866,-36.1162,2.8051,-1.4117,-6.549,-7.1614,1.3333,5.9018,7.9362,0.741,8.0094,-0.1256,77416,2021-05-16 14:47:10:020
0.866,-36.1162,2.8051,-1.4117,-6.549,-7.1614,1.3333,5.9018,7.9362,0.741,8.0094,-0.1256,77416,2021-05-16 14:47:10:020
0.866,-36.1162,2.8051,-1.4117,-6.549,-7.1614,1.3333,5.9018,7.9362,0.741,8.0094,-0.1256,77416,2021-05-16 14:47:10:020
0.866,-36.1162,2.8051,-1.4117,-6.549,-7.1614,1.3333,5.9018,7.9362,0.741,8.0094,-0.1256,77416,2021-05-16 14:47:10:020
0.866,-36.1162,2.8051,-1.4117,-6.549,-7.1614,1.3333,5.9018,7.9362,0.741,8.0094,-0.1256,77416,2021-05-16 14:47:10:020
0.866,-36.1162,2.8051,-1.4117,-6.549,-7.1614,1.3333,5.9018,7.9362,0.741,8.0094,-0.1256,77418,2021-05-16 14:47:10:022
0.866,-36.1162,2.8051,-1.4117,-6.549,-7.1614,1.3333,5.9018,7.9362,0.741,8.0094,-0.1256,77419,2021-05-16 14:47:10:023
0.866,-36.1162,2.8051,-1.4117,-6.549,-7.1614,1.3333,5.9018,7.9362,0.741,8.0094,-0.1256,77419,2021-05-16 14:47:10:023
0.866,-36.1162,2.8051,-1.4117,-6.549,-7.1614,1.3333,5.9018,7.9362,0.741,8.0094,-0.1256,77419,2021-05-16 14:47:10:023
0.866,-36.1162,2.8051,-1.4117,-6.549,-7.1614,1.3333,5.9018,7.9362,0.741,8.0094,-0.1256,77420,2021-05-16 14:47:10:024
0.866,-36.1162,2.8051,-1.4117,-6.549,-7.1614,1.3333,5.9018,7.9362,0.741,8.0094,-0.1256,77420,2021-05-16 14:47:10:024
0.866,-36.1162,2.8051,-1.4117,-6.549,-7.1614,1.3333,5.9018,7.9362,0.741,8.0094,-0.1256,77420,2021-05-16 14:47:10:024
0.866,-36.1162,2.8051,-1.4117,-6.549,-7.1614,1.3333,5.9018,7.9362,0.741,8.0094,-0.1256,77420,2021-05-16 14:47:10:024
0.866,-36.1162,2.8051,-1.4117,-6.549,-7.1614,1.3333,5.9018,7.9362,0.741,8.0094,-0.1256,77422,2021-05-16 14:47:10:026
0.866,-36.1162,2.8051,-1.4117,-6.549,-7.1614,1.3333,5.9018,7.9362,0.741,8.0094,-0.1256,77422,2021-05-16 14:47:10:026
0.866,-36.1162,2.8051,-1.4117,-6.549,-7.1614,1.3333,5.9018,7.9362,0.741,8.0094,-0.1256,77423,2021-05-16 14:47:10:027
0.866,-36.1162,2.8051,-1.4117,-6.549,-7.1614,1.3333,5.9018,7.9362,0.741,8.0094,-0.1256,77423,2021-05-16 14:47:10:027
0.866,-36.1162,2.8051,-1.4117,-6.549,-7.1614,1.3333,5.9018,7.9362,0.741,8.0094,-0.1256,77423,2021-05-16 14:47:10:027
0.866,-36.1162,2.8051,-1.4117,-6.549,-7.1614,1.3333,5.9018,7.9362,0.741,8.0094,-0.1256,77424,2021-05-16 14:47:10:028
0.866,-36.1162,2.8051,-1.4117,-6.549,-7.1614,1.3333,5.9018,7.9362,0.741,8.0094,-0.1256,77424,2021-05-16 14:47:10:028
0.866,-36.1162,2.8051,-1.4117,-6.549,-7.1614,1.3333,5.9018,7.9362,0.741,8.0094,-0.1256,77425,2021-05-16 14:47:10:029
0.866,-36.1162,2.8051,-1.4117,-6.549,-7.1614,1.3333,5.9018,7.9362,0.741,8.0094,-0.1256,77425,2021-05-16 14:47:10:029
0.866,-36.1162,2.8051,-1.4117,-6.549,-7.1614,1.3333,5.9018,7.9362,0.741,8.0094,-0.1256,77425,2021-05-16 14:47:10:029
0.866,-36.1162,2.8051,-1.4117,-6.549,-7.1614,1.3333,5.9018,7.9362,0.741,8.0094,-0.1256,77426,2021-05-16 14:47:10:030
0.866,-36.1162,2.8051,-1.4117,-6.549,-7.1614,1.3333,5.9018,7.9362,0.741,8.0094,-0.1256,77426,2021-05-16 14:47:10:030
0.866,-36.1162,2.8051,-1.4117,-6.549,-7.1614,1.3333,5.9018,7.9362,0.741,8.0094,-0.1256,77427,2021-05-16 14:47:10:031
0.866,-36.1162,2.8051,-1.4117,-6.549,-7.1614,1.3333,5.9018,7.9362,0.741,8.0094,-0.1256,77428,2021-05-16 14:47:10:032
0.866,-36.1162,2.8051,-1.4117,-6.549,-7.1614,1.3333,5.9018,7.9362,0.741,8.0094,-0.1256,77428,2021-05-16 14:47:10:032
0.866,-36.1162,2.8051,-1.4117,-6.549,-7.1614,1.3333,5.9018,7.9362,0.741,8.0094,-0.1256,77428,2021-05-16 14:47:10:032
0.866,-36.1162,2.8051,-1.4117,-6.549,-7.1614,1.3333,5.9018,7.9362,0.741,8.0094,-0.1256,77430,2021-05-16 14:47:10:034
0.866,-36.1162,2.8051,-1.4117,-6.549,-7.1614,1.3333,5.9018,7.9362,0.741,8.0094,-0.1256,77431,2021-05-16 14:47:10:035
0.866,-36.1162,2.8051,-1.4117,-6.549,-7.1614,1.3333,5.9018,7.9362,0.741,8.0094,-0.1256,77431,2021-05-16 14:47:10:035
0.866,-36.1162,2.8051,-1.4117,-6.549,-7.1614,1.3333,5.9018,7.9362,0.741,8.0094,-0.1256,77431,2021-05-16 14:47:10:035
0.866,-36.1162,2.8051,-1.4117,-6.549,-7.1614,1.3333,5.9018,7.9362,0.741,8.0094,-0.1256,77431,2021-05-16 14:47:10:035
0.866,-36.1162,2.8051,-1.4117,-6.549,-7.1614,1.3333,5.9018,7.9362,0.741,8.0094,-0.1256,77432,2021-05-16 14:47:10:036
0.866,-36.1162,2.8051,-1.4117,-6.549,-7.1614,1.3333,5.9018,7.9362,0.741,8.0094,-0.1256,77434,2021-05-16 14:47:10:038
0.866,-36.1162,2.8051,-1.4117,-6.549,-7.1614,1.3333,5.9018,7.9362,0.741,8.0094,-0.1256,77435,2021-05-16 14:47:10:039
0.866,-36.1162,2.8051,-1.4117,-6.549,-7.1614,1.3333,5.9018,7.9362,0.741,8.0094,-0.1256,77435,2021-05-16 14:47:10:039
0.866,-36.1162,2.8051,-1.4117,-6.549,-7.1614,1.3333,5.9018,7.9362,0.741,8.0094,-0.1256,77436,2021-05-16 14:47:10:040
0.866,-36.1162,2.8051,-1.4117,-6.549,-7.1614,1.3333,5.9018,7.9362,0.741,8.0094,-0.1256,77436,2021-05-16 14:47:10:040
0.866,-36.1162,2.8051,-1.4117,-6.549,-7.1614,1.3333,5.9018,7.9362,0.741,8.0094,-0.1256,77437,2021-05-16 14:47:10:041
0.866,-36.1162,2.8051,-1.4117,-6.549,-7.1614,1.3333,5.9018,7.9362,0.741,8.0094,-0.1256,77437,2021-05-16 14:47:10:041
0.866,-36.1162,2.8051,-1.4117,-6.549,-7.1614,1.3333,5.9018,7.9362,0.741,8.0094,-0.1256,77437,2021-05-16 14:47:10:041
0.866,-36.1162,2.8051,-1.4117,-6.549,-7.1614,1.3333,5.9018,7.9362,0.741,8.0094,-0.1256,77437,2021-05-16 14:47:10:041
0.866,-36.1162,2.8051,-1.4117,-6.549,-7.1614,1.3333,5.9018,7.9362,0.741,8.0094,-0.1256,77438,2021-05-16 14:47:10:042
0.866,-36.1162,2.8051,-1.4117,-6.549,-7.1614,1.3333,5.9018,7.9362,0.741,8.0094,-0.1256,77438,2021-05-16 14:47:10:042
0.866,-36.1162,2.8051,-1.4117,-6.549,-7.1614,1.3333,5.9018,7.9362,0.741,8.0094,-0.1256,77438,2021-05-16 14:47:10:042
0.866,-36.1162,2.8051,-1.4117,-6.549,-7.1614,1.3333,5.9018,7.9362,0.741,8.0094,-0.1256,77439,2021-05-16 14:47:10:043
0.866,-36.1162,2.8051,-1.4117,-6.549,-7.1614,1.3333,5.9018,7.9362,0.741,8.0094,-0.1256,77439,2021-05-16 14:47:10:043
0.866,-36.1162,2.8051,-1.4117,-6.549,-7.1614,1.3333,5.9018,7.9362,0.741,8.0094,-0.1256,77439,2021-05-16 14:47:10:043
0.866,-36.1162,2.8051,-1.4117,-6.549,-7.1614,1.3333,5.9018,7.9362,0.741,8.0094,-0.1256,77439,2021-05-16 14:47:10:043
0.866,-36.1162,2.8051,-1.4117,-6.549,-7.1614,1.3333,5.9018,7.9362,0.741,8.0094,-0.1256,77440,2021-05-16 14:47:10:044
0.866,-36.1162,2.8051,-1.4117,-6.549,-7.1614,1.3333,5.9018,7.9362,0.741,8.0094,-0.1256,77440,2021-05-16 14:47:10:044
0.866,-36.1162,2.8051,-1.4117,-6.549,-7.1614,1.3333,5.9018,7.9362,0.741,8.0094,-0.1256,77440,2021-05-16 14:47:10:044
0.866,-36.1162,2.8051,-1.4117,-6.549,-7.1614,1.3333,5.9018,7.9362,0.741,8.0094,-0.1256,77440,2021-05-16 14:47:10:044
0.866,-36.1162,2.8051,-1.4117,-6.549,-7.1614,1.3333,5.9018,7.9362,0.741,8.0094,-0.1256,77440,2021-05-16 14:47:10:044
0.866,-36.1162,2.8051,-1.4117,-6.549,-7.1614,1.3333,5.9018,7.9362,0.741,8.0094,-0.1256,77440,2021-05-16 14:47:10:044
0.866,-36.1162,2.8051,-1.4117,-6.549,-7.1614,1.3333,5.9018,7.9362,0.741,8.0094,-0.1256,77441,2021-05-16 14:47:10:045
0.866,-36.1162,2.8051,-1.4117,-6.549,-7.1614,1.3333,5.9018,7.9362,0.741,8.0094,-0.1256,77441,2021-05-16 14:47:10:045
0.866,-36.1162,2.8051,-1.4117,-6.549,-7.1614,1.3333,5.9018,7.9362,0.741,8.0094,-0.1256,77441,2021-05-16 14:47:10:045
0.866,-36.1162,2.8051,-1.4117,-6.549,-7.1614,1.3333,5.9018,7.9362,0.741,8.0094,-0.1256,77441,2021-05-16 14:47:10:045
0.866,-36.1162,2.8051,-1.4117,-6.549,-7.1614,1.3333,5.9018,7.9362,0.741,8.0094,-0.1256,77442,2021-05-16 14:47:10:046
0.866,-36.1162,2.8051,-1.4117,-6.549,-7.1614,1.3333,5.9018,7.9362,0.741,8.0094,-0.1256,77443,2021-05-16 14:47:10:047
0.866,-36.1162,2.8051,-1.4117,-6.549,-7.1614,1.3333,5.9018,7.9362,0.741,8.0094,-0.1256,77444,2021-05-16 14:47:10:048
0.866,-36.1162,2.8051,-1.4117,-6.549,-7.1614,1.3333,5.9018,7.9362,0.741,8.0094,-0.1256,77444,2021-05-16 14:47:10:048
0.866,-36.1162,2.8051,-1.4117,-6.549,-7.1614,1.3333,5.9018,7.9362,0.741,8.0094,-0.1256,77444,2021-05-16 14:47:10:048
0.866,-36.1162,2.8051,-1.4117,-6.549,-7.1614,1.3333,5.9018,7.9362,0.741,8.0094,-0.1256,77444,2021-05-16 14:47:10:048
0.866,-36.1162,2.8051,-1.4117,-6.549,-7.1614,1.3333,5.9018,7.9362,0.741,8.0094,-0.1256,77444,2021-05-16 14:47:10:048
0.866,-36.1162,2.8051,-1.4117,-6.549,-7.1614,1.3333,5.9018,7.9362,0.741,8.0094,-0.1256,77444,2021-05-16 14:47:10:048
0.866,-36.1162,2.8051,-1.4117,-6.549,-7.1614,1.3333,5.9018,7.9362,0.741,8.0094,-0.1256,77445,2021-05-16 14:47:10:049
0.866,-36.1162,2.8051,-1.4117,-6.549,-7.1614,1.3333,5.9018,7.9362,0.741,8.0094,-0.1256,77445,2021-05-16 14:47:10:049
0.866,-36.1162,2.8051,-1.4117,-6.549,-7.1614,1.3333,5.9018,7.9362,0.741,8.0094,-0.1256,77446,2021-05-16 14:47:10:050
0.866,-36.1162,2.8051,-1.4117,-6.549,-7.1614,1.3333,5.9018,7.9362,0.741,8.0094,-0.1256,77446,2021-05-16 14:47:10:050
0.866,-36.1162,2.8051,-1.4117,-6.549,-7.1614,1.3333,5.9018,7.9362,0.741,8.0094,-0.1256,77446,2021-05-16 14:47:10:050
0.866,-36.1162,2.8051,-1.4117,-6.549,-7.1614,1.3333,5.9018,7.9362,0.741,8.0094,-0.1256,77447,2021-05-16 14:47:10:051
0.866,-36.1162,2.8051,-1.4117,-6.549,-7.1614,1.3333,5.9018,7.9362,0.741,8.0094,-0.1256,77447,2021-05-16 14:47:10:051
0.866,-36.1162,2.8051,-1.4117,-6.549,-7.1614,1.3333,5.9018,7.9362,0.741,8.0094,-0.1256,77447,2021-05-16 14:47:10:051
0.866,-36.1162,2.8051,-1.4117,-6.549,-7.1614,1.3333,5.9018,7.9362,0.741,8.0094,-0.1256,77447,2021-05-16 14:47:10:051
0.866,-36.1162,2.8051,-1.4117,-6.549,-7.1614,1.3333,5.9018,7.9362,0.741,8.0094,-0.1256,77448,2021-05-16 14:47:10:052
0.866,-36.1162,2.8051,-1.4117,-6.549,-7.1614,1.3333,5.9018,7.9362,0.741,8.0094,-0.1256,77448,2021-05-16 14:47:10:052
0.866,-36.1162,2.8051,-1.4117,-6.549,-7.1614,1.3333,5.9018,7.9362,0.741,8.0094,-0.1256,77448,2021-05-16 14:47:10:052
0.866,-36.1162,2.8051,-1.4117,-6.549,-7.1614,1.3333,5.9018,7.9362,0.741,8.0094,-0.1256,77448,2021-05-16 14:47:10:052
0.866,-36.1162,2.8051,-1.4117,-6.549,-7.1614,1.3333,5.9018,7.9362,0.741,8.0094,-0.1256,77448,2021-05-16 14:47:10:052
0.866,-36.1162,2.8051,-1.4117,-6.549,-7.1614,1.3333,5.9018,7.9362,0.741,8.0094,-0.1256,77448,2021-05-16 14:47:10:052
0.866,-36.1162,2.8051,-1.4117,-6.549,-7.1614,1.3333,5.9018,7.9362,0.741,8.0094,-0.1256,77448,2021-05-16 14:47:10:052
0.866,-36.1162,2.8051,-1.4117,-6.549,-7.1614,1.3333,5.9018,7.9362,0.741,8.0094,-0.1256,77448,2021-05-16 14:47:10:052
0.866,-36.1162,2.8051,-1.4117,-6.549,-7.1614,1.3333,5.9018,7.9362,0.741,8.0094,-0.1256,77449,2021-05-16 14:47:10:053
0.866,-36.1162,2.8051,-1.4117,-6.549,-7.1614,1.3333,5.9018,7.9362,0.741,8.0094,-0.1256,77449,2021-05-16 14:47:10:053
0.866,-36.1162,2.8051,-1.4117,-6.549,-7.1614,1.3333,5.9018,7.9362,0.741,8.0094,-0.1256,77449,2021-05-16 14:47:10:053
0.866,-36.1162,2.8051,-1.4117,-6.549,-7.1614,1.3333,5.9018,7.9362,0.741,8.0094,-0.1256,77449,2021-05-16 14:47:10:053
0.866,-36.1162,2.8051,-1.4117,-6.549,-7.1614,1.3333,5.9018,7.9362,0.741,8.0094,-0.1256,77449,2021-05-16 14:47:10:053
0.866,-36.1162,2.8051,-1.4117,-6.549,-7.1614,1.3333,5.9018,7.9362,0.741,8.0094,-0.1256,77449,2021-05-16 14:47:10:053
0.866,-36.1162,2.8051,-1.4117,-6.549,-7.1614,1.3333,5.9018,7.9362,0.741,8.0094,-0.1256,77450,2021-05-16 14:47:10:054
0.866,-36.1162,2.8051,-1.4117,-6.549,-7.1614,1.3333,5.9018,7.9362,0.741,8.0094,-0.1256,77450,2021-05-16 14:47:10:054
0.866,-36.1162,2.8051,-1.4117,-6.549,-7.1614,1.3333,5.9018,7.9362,0.741,8.0094,-0.1256,77450,2021-05-16 14:47:10:054
0.866,-36.1162,2.8051,-1.4117,-6.549,-7.1614,1.3333,5.9018,7.9362,0.741,8.0094,-0.1256,77451,2021-05-16 14:47:10:055
0.866,-36.1162,2.8051,-1.4117,-6.549,-7.1614,1.3333,5.9018,7.9362,0.741,8.0094,-0.1256,77452,2021-05-16 14:47:10:056
0.866,-36.1162,2.8051,-1.4117,-6.549,-7.1614,1.3333,5.9018,7.9362,0.741,8.0094,-0.1256,77452,2021-05-16 14:47:10:056
0.866,-36.1162,2.8051,-1.4117,-6.549,-7.1614,1.3333,5.9018,7.9362,0.741,8.0094,-0.1256,77452,2021-05-16 14:47:10:056
0.866,-36.1162,2.8051,-1.4117,-6.549,-7.1614,1.3333,5.9018,7.9362,0.741,8.0094,-0.1256,77452,2021-05-16 14:47:10:056
0.866,-36.1162,2.8051,-1.4117,-6.549,-7.1614,1.3333,5.9018,7.9362,0.741,8.0094,-0.1256,77454,2021-05-16 14:47:10:058
0.866,-36.1162,2.8051,-1.4117,-6.549,-7.1614,1.3333,5.9018,7.9362,0.741,8.0094,-0.1256,77454,2021-05-16 14:47:10:058
0.866,-36.1162,2.8051,-1.4117,-6.549,-7.1614,1.3333,5.9018,7.9362,0.741,8.0094,-0.1256,77455,2021-05-16 14:47:10:059
0.866,-36.1162,2.8051,-1.4117,-6.549,-7.1614,1.3333,5.9018,7.9362,0.741,8.0094,-0.1256,77455,2021-05-16 14:47:10:059
0.866,-36.1162,2.8051,-1.4117,-6.549,-7.1614,1.3333,5.9018,7.9362,0.741,8.0094,-0.1256,77455,2021-05-16 14:47:10:059
0.866,-36.1162,2.8051,-1.4117,-6.549,-7.1614,1.3333,5.9018,7.9362,0.741,8.0094,-0.1256,77455,2021-05-16 14:47:10:059
0.866,-36.1162,2.8051,-1.4117,-6.549,-7.1614,1.3333,5.9018,7.9362,0.741,8.0094,-0.1256,77456,2021-05-16 14:47:10:060
0.866,-36.1162,2.8051,-1.4117,-6.549,-7.1614,1.3333,5.9018,7.9362,0.741,8.0094,-0.1256,77456,2021-05-16 14:47:10:060
0.866,-36.1162,2.8051,0.4531,1.7662,9.6356,0.0274,0.1068,0.5828,0.741,8.0094,-0.1256,77456,2021-05-16 14:47:10:060
0.866,-36.1162,2.8051,0.4531,1.7662,9.6356,0.0274,0.1068,0.5828,0.741,8.0094,-0.1256,77457,2021-05-16 14:47:10:061
0.866,-36.1162,2.8051,0.4531,1.7662,9.6356,0.0274,0.1068,0.5828,0.741,8.0094,-0.1256,77457,2021-05-16 14:47:10:061
0.866,-36.1162,2.8051,0.4531,1.7662,9.6356,0.0274,0.1068,0.5828,0.741,8.0094,-0.1256,77458,2021-05-16 14:47:10:062
0.866,-36.1162,2.8051,0.4531,1.7662,9.6356,0.0274,0.1068,0.5828,0.741,8.0094,-0.1256,77458,2021-05-16 14:47:10:062
0.866,-36.1162,2.8051,0.4531,1.7662,9.6356,0.0274,0.1068,0.5828,0.741,8.0094,-0.1256,77458,2021-05-16 14:47:10:062
0.866,-36.1162,2.8051,0.4531,1.7662,9.6356,0.0274,0.1068,0.5828,0.741,8.0094,-0.1256,77459,2021-05-16 14:47:10:063
0.866,-36.1162,2.8051,0.4531,1.7662,9.6356,0.0274,0.1068,0.5828,0.741,8.0094,-0.1256,77459,2021-05-16 14:47:10:063
0.866,-36.1162,2.8051,0.4531,1.7662,9.6356,0.0274,0.1068,0.5828,0.741,8.0094,-0.1256,77460,2021-05-16 14:47:10:064
0.866,-36.1162,2.8051,0.4531,1.7662,9.6356,0.0274,0.1068,0.5828,0.741,8.0094,-0.1256,77460,2021-05-16 14:47:10:064
0.866,-36.1162,2.8051,0.4531,1.7662,9.6356,0.0274,0.1068,0.5828,0.741,8.0094,-0.1256,77460,2021-05-16 14:47:10:064
0.866,-36.1162,2.8051,0.4531,1.7662,9.6356,0.0274,0.1068,0.5828,0.741,8.0094,-0.1256,77464,2021-05-16 14:47:10:068
0.866,-36.1162,2.8051,0.4531,1.7662,9.6356,0.0274,0.1068,0.5828,0.741,8.0094,-0.1256,77464,2021-05-16 14:47:10:068
0.866,-36.1162,2.8051,0.4531,1.7662,9.6356,0.0274,0.1068,0.5828,0.741,8.0094,-0.1256,77465,2021-05-16 14:47:10:069
0.866,-36.1162,2.8051,0.4531,1.7662,9.6356,0.0274,0.1068,0.5828,0.741,8.0094,-0.1256,77465,2021-05-16 14:47:10:069
0.866,-36.1162,2.8051,0.4531,1.7662,9.6356,0.0274,0.1068,0.5828,0.741,8.0094,-0.1256,77465,2021-05-16 14:47:10:069
0.866,-36.1162,2.8051,0.4531,1.7662,9.6356,0.0274,0.1068,0.5828,0.741,8.0094,-0.1256,77465,2021-05-16 14:47:10:069
0.866,-36.1162,2.8051,0.4531,1.7662,9.6356,0.0274,0.1068,0.5828,0.741,8.0094,-0.1256,77470,2021-05-16 14:47:10:074
0.866,-36.1162,2.8051,0.4531,1.7662,9.6356,0.0274,0.1068,0.5828,0.741,8.0094,-0.1256,77473,2021-05-16 14:47:10:077
0.866,-36.1162,2.8051,0.4531,1.7662,9.6356,0.0274,0.1068,0.5828,0.741,8.0094,-0.1256,77473,2021-05-16 14:47:10:077
0.866,-36.1162,2.8051,0.4531,1.7662,9.6356,0.0274,0.1068,0.5828,0.741,8.0094,-0.1256,77474,2021-05-16 14:47:10:078
0.866,-36.1162,2.8051,0.4531,1.7662,9.6356,0.0274,0.1068,0.5828,0.741,8.0094,-0.1256,77475,2021-05-16 14:47:10:079
0.866,-36.1162,2.8051,0.4531,1.7662,9.6356,0.0274,0.1068,0.5828,0.741,8.0094,-0.1256,77475,2021-05-16 14:47:10:079
0.866,-36.1162,2.8051,0.4531,1.7662,9.6356,0.0274,0.1068,0.5828,0.741,8.0094,-0.1256,77476,2021-05-16 14:47:10:080
0.866,-36.1162,2.8051,0.4531,1.7662,9.6356,0.0274,0.1068,0.5828,0.741,8.0094,-0.1256,77477,2021-05-16 14:47:10:081
0.866,-36.1162,2.8051,0.4531,1.7662,9.6356,0.0274,0.1068,0.5828,0.741,8.0094,-0.1256,77477,2021-05-16 14:47:10:081
0.866,-36.1162,2.8051,0.4531,1.7662,9.6356,0.0274,0.1068,0.5828,0.741,8.0094,-0.1256,77477,2021-05-16 14:47:10:081
0.866,-36.1162,2.8051,0.4531,1.7662,9.6356,0.0274,0.1068,0.5828,0.741,8.0094,-0.1256,77478,2021-05-16 14:47:10:082
0.866,-36.1162,2.8051,0.4531,1.7662,9.6356,0.0274,0.1068,0.5828,0.741,8.0094,-0.1256,77478,2021-05-16 14:47:10:082
0.866,-36.1162,2.8051,0.4531,1.7662,9.6356,0.0274,0.1068,0.5828,0.741,8.0094,-0.1256,77479,2021-05-16 14:47:10:083
0.866,-36.1162,2.8051,0.4531,1.7662,9.6356,0.0274,0.1068,0.5828,-0.0032,-0.7761,-0.2172,77479,2021-05-16 14:47:10:083
0.866,-36.1162,2.8051,0.4531,1.7662,9.6356,0.0274,0.1068,0.5828,-0.0032,-0.7761,-0.2172,77480,2021-05-16 14:47:10:084
0.866,-36.1162,2.8051,0.4531,1.7662,9.6356,0.0274,0.1068,0.5828,-0.0032,-0.7761,-0.2172,77480,2021-05-16 14:47:10:084
0.866,-36.1162,2.8051,0.4531,1.7662,9.6356,0.0274,0.1068,0.5828,-0.0032,-0.7761,-0.2172,77481,2021-05-16 14:47:10:085
0.866,-36.1162,2.8051,0.4531,1.7662,9.6356,0.0274,0.1068,0.5828,-0.0032,-0.7761,-0.2172,77481,2021-05-16 14:47:10:085
0.866,-36.1162,2.8051,0.4531,1.7662,9.6356,0.0274,0.1068,0.5828,-0.0032,-0.7761,-0.2172,77482,2021-05-16 14:47:10:086
0.866,-36.1162,2.8051,0.4531,1.7662,9.6356,0.0274,0.1068,0.5828,-0.0032,-0.7761,-0.2172,77483,2021-05-16 14:47:10:087
0.866,-36.1162,2.8051,0.4531,1.7662,9.6356,0.0274,0.1068,0.5828,-0.0032,-0.7761,-0.2172,77485,2021-05-16 14:47:10:089
0.866,-36.1162,2.8051,0.4531,1.7662,9.6356,0.0274,0.1068,0.5828,-0.0032,-0.7761,-0.2172,77485,2021-05-16 14:47:10:089
0.866,-36.1162,2.8051,0.4531,1.7662,9.6356,0.0274,0.1068,0.5828,-0.0032,-0.7761,-0.2172,77486,2021-05-16 14:47:10:090
0.866,-36.1162,2.8051,0.4531,1.7662,9.6356,0.0274,0.1068,0.5828,-0.0032,-0.7761,-0.2172,77486,2021-05-16 14:47:10:090
0.866,-36.1162,2.8051,0.4531,1.7662,9.6356,0.0274,0.1068,0.5828,-0.0032,-0.7761,-0.2172,77486,2021-05-16 14:47:10:090
0.866,-36.1162,2.8051,0.4531,1.7662,9.6356,0.0274,0.1068,0.5828,-0.0032,-0.7761,-0.2172,77487,2021-05-16 14:47:10:091
0.866,-36.1162,2.8051,0.4531,1.7662,9.6356,0.0274,0.1068,0.5828,-0.0032,-0.7761,-0.2172,77487,2021-05-16 14:47:10:091
0.866,-36.1162,2.8051,0.4531,1.7662,9.6356,0.0274,0.1068,0.5828,-0.0032,-0.7761,-0.2172,77487,2021-05-16 14:47:10:091
0.866,-36.1162,2.8051,0.4531,1.7662,9.6356,0.0274,0.1068,0.5828,-0.0032,-0.7761,-0.2172,77487,2021-05-16 14:47:10:091
0.866,-36.1162,2.8051,0.4531,1.7662,9.6356,0.0274,0.1068,0.5828,-0.0032,-0.7761,-0.2172,77488,2021-05-16 14:47:10:092
0.866,-36.1162,2.8051,0.4531,1.7662,9.6356,0.0274,0.1068,0.5828,-0.0032,-0.7761,-0.2172,77488,2021-05-16 14:47:10:092
0.866,-36.1162,2.8051,0.4531,1.7662,9.6356,0.0274,0.1068,0.5828,-0.0032,-0.7761,-0.2172,77489,2021-05-16 14:47:10:093
0.866,-36.1162,2.8051,0.4531,1.7662,9.6356,0.0274,0.1068,0.5828,-0.0032,-0.7761,-0.2172,77489,2021-05-16 14:47:10:093
0.866,-36.1162,2.8051,0.4531,1.7662,9.6356,0.0274,0.1068,0.5828,-0.0032,-0.7761,-0.2172,77489,2021-05-16 14:47:10:093
0.866,-36.1162,2.8051,0.4531,1.7662,9.6356,0.0274,0.1068,0.5828,-0.0032,-0.7761,-0.2172,77490,2021-05-16 14:47:10:094
0.866,-36.1162,2.8051,0.4531,1.7662,9.6356,0.0274,0.1068,0.5828,-0.0032,-0.7761,-0.2172,77490,2021-05-16 14:47:10:094
0.866,-36.1162,2.8051,0.4531,1.7662,9.6356,0.0274,0.1068,0.5828,-0.0032,-0.7761,-0.2172,77490,2021-05-16 14:47:10:094
0.866,-36.1162,2.8051,0.4531,1.7662,9.6356,0.0274,0.1068,0.5828,-0.0032,-0.7761,-0.2172,77490,2021-05-16 14:47:10:094
0.866,-36.1162,2.8051,0.4531,1.7662,9.6356,0.0274,0.1068,0.5828,-0.0032,-0.7761,-0.2172,77490,2021-05-16 14:47:10:094
0.866,-36.1162,2.8051,0.4531,1.7662,9.6356,0.0274,0.1068,0.5828,-0.0032,-0.7761,-0.2172,77491,2021-05-16 14:47:10:095
0.866,-36.1162,2.8051,0.4531,1.7662,9.6356,0.0274,0.1068,0.5828,-0.0032,-0.7761,-0.2172,77491,2021-05-16 14:47:10:095
0.866,-36.1162,2.8051,0.4531,1.7662,9.6356,0.0274,0.1068,0.5828,-0.0032,-0.7761,-0.2172,77491,2021-05-16 14:47:10:095
0.866,-36.1162,2.8051,0.4531,1.7662,9.6356,0.0274,0.1068,0.5828,-0.0032,-0.7761,-0.2172,77491,2021-05-16 14:47:10:095
0.866,-36.1162,2.8051,0.4531,1.7662,9.6356,0.0274,0.1068,0.5828,-0.0032,-0.7761,-0.2172,77491,2021-05-16 14:47:10:095
0.866,-36.1162,2.8051,0.4531,1.7662,9.6356,0.0274,0.1068,0.5828,-0.0032,-0.7761,-0.2172,77492,2021-05-16 14:47:10:096
0.866,-36.1162,2.8051,0.4531,1.7662,9.6356,0.0274,0.1068,0.5828,-0.0032,-0.7761,-0.2172,77492,2021-05-16 14:47:10:096
0.866,-36.1162,2.8051,0.4531,1.7662,9.6356,0.0274,0.1068,0.5828,-0.0032,-0.7761,-0.2172,77492,2021-05-16 14:47:10:096
0.866,-36.1162,2.8051,0.4531,1.7662,9.6356,0.0274,0.1068,0.5828,-0.0032,-0.7761,-0.2172,77492,2021-05-16 14:47:10:096
0.866,-36.1162,2.8051,0.4531,1.7662,9.6356,0.0274,0.1068,0.5828,-0.0032,-0.7761,-0.2172,77492,2021-05-16 14:47:10:096
0.866,-36.1162,2.8051,0.4531,1.7662,9.6356,0.0274,0.1068,0.5828,-0.0032,-0.7761,-0.2172,77492,2021-05-16 14:47:10:096
0.866,-36.1162,2.8051,0.4531,1.7662,9.6356,0.0274,0.1068,0.5828,-0.0032,-0.7761,-0.2172,77493,2021-05-16 14:47:10:097
0.866,-36.1162,2.8051,0.4531,1.7662,9.6356,0.0274,0.1068,0.5828,-0.0032,-0.7761,-0.2172,77493,2021-05-16 14:47:10:097
0.866,-36.1162,2.8051,0.4531,1.7662,9.6356,0.0274,0.1068,0.5828,-0.0032,-0.7761,-0.2172,77493,2021-05-16 14:47:10:097
0.866,-36.1162,2.8051,0.4531,1.7662,9.6356,0.0274,0.1068,0.5828,-0.0032,-0.7761,-0.2172,77494,2021-05-16 14:47:10:098
0.866,-36.1162,2.8051,0.4531,1.7662,9.6356,0.0274,0.1068,0.5828,-0.0032,-0.7761,-0.2172,77494,2021-05-16 14:47:10:098
0.866,-36.1162,2.8051,0.4531,1.7662,9.6356,0.0274,0.1068,0.5828,-0.0032,-0.7761,-0.2172,77494,2021-05-16 14:47:10:098
0.866,-36.1162,2.8051,0.4531,1.7662,9.6356,0.0274,0.1068,0.5828,-0.0032,-0.7761,-0.2172,77495,2021-05-16 14:47:10:099
0.866,-36.1162,2.8051,0.4531,1.7662,9.6356,0.0274,0.1068,0.5828,-0.0032,-0.7761,-0.2172,77495,2021-05-16 14:47:10:099
0.866,-36.1162,2.8051,0.4531,1.7662,9.6356,0.0274,0.1068,0.5828,-0.0032,-0.7761,-0.2172,77495,2021-05-16 14:47:10:099
0.866,-36.1162,2.8051,0.4531,1.7662,9.6356,0.0274,0.1068,0.5828,-0.0032,-0.7761,-0.2172,77496,2021-05-16 14:47:10:100
0.866,-36.1162,2.8051,0.4531,1.7662,9.6356,0.0274,0.1068,0.5828,-0.0032,-0.7761,-0.2172,77496,2021-05-16 14:47:10:100
0.866,-36.1162,2.8051,0.4531,1.7662,9.6356,0.0274,0.1068,0.5828,-0.0032,-0.7761,-0.2172,77496,2021-05-16 14:47:10:100
0.866,-36.1162,2.8051,0.4531,1.7662,9.6356,0.0274,0.1068,0.5828,-0.0032,-0.7761,-0.2172,77497,2021-05-16 14:47:10:101
0.866,-36.1162,2.8051,0.4531,1.7662,9.6356,0.0274,0.1068,0.5828,-0.0032,-0.7761,-0.2172,77497,2021-05-16 14:47:10:101
0.866,-36.1162,2.8051,0.4531,1.7662,9.6356,0.0274,0.1068,0.5828,-0.0032,-0.7761,-0.2172,77497,2021-05-16 14:47:10:101
0.866,-36.1162,2.8051,0.4531,1.7662,9.6356,0.0274,0.1068,0.5828,-0.0032,-0.7761,-0.2172,77497,2021-05-16 14:47:10:101
0.866,-36.1162,2.8051,0.4531,1.7662,9.6356,0.0274,0.1068,0.5828,-0.0032,-0.7761,-0.2172,77497,2021-05-16 14:47:10:101
0.866,-36.1162,2.8051,0.4531,1.7662,9.6356,0.0274,0.1068,0.5828,-0.0032,-0.7761,-0.2172,77497,2021-05-16 14:47:10:101
0.866,-36.1162,2.8051,0.4531,1.7662,9.6356,0.0274,0.1068,0.5828,-0.0032,-0.7761,-0.2172,77498,2021-05-16 14:47:10:102
0.866,-36.1162,2.8051,0.4531,1.7662,9.6356,0.0274,0.1068,0.5828,-0.0032,-0.7761,-0.2172,77498,2021-05-16 14:47:10:102
0.866,-36.1162,2.8051,0.4531,1.7662,9.6356,0.0274,0.1068,0.5828,-0.0032,-0.7761,-0.2172,77498,2021-05-16 14:47:10:102
0.866,-36.1162,2.8051,0.4531,1.7662,9.6356,0.0274,0.1068,0.5828,-0.0032,-0.7761,-0.2172,77498,2021-05-16 14:47:10:102
0.866,-36.1162,2.8051,0.4531,1.7662,9.6356,0.0274,0.1068,0.5828,-0.0032,-0.7761,-0.2172,77499,2021-05-16 14:47:10:103
0.866,-36.1162,2.8051,0.4531,1.7662,9.6356,0.0274,0.1068,0.5828,-0.0032,-0.7761,-0.2172,77499,2021-05-16 14:47:10:103
0.866,-36.1162,2.8051,0.4531,1.7662,9.6356,0.0274,0.1068,0.5828,-0.0032,-0.7761,-0.2172,77499,2021-05-16 14:47:10:103
0.866,-36.1162,2.8051,0.4531,1.7662,9.6356,0.0274,0.1068,0.5828,-0.0032,-0.7761,-0.2172,77499,2021-05-16 14:47:10:103
0.866,-36.1162,2.8051,0.4531,1.7662,9.6356,0.0274,0.1068,0.5828,-0.0032,-0.7761,-0.2172,77499,2021-05-16 14:47:10:103
0.866,-36.1162,2.8051,0.4531,1.7662,9.6356,0.0274,0.1068,0.5828,-0.0032,-0.7761,-0.2172,77499,2021-05-16 14:47:10:103
0.866,-36.1162,2.8051,0.4531,1.7662,9.6356,0.0274,0.1068,0.5828,-0.0032,-0.7761,-0.2172,77500,2021-05-16 14:47:10:104
0.866,-36.1162,2.8051,0.4531,1.7662,9.6356,0.0274,0.1068,0.5828,-0.0032,-0.7761,-0.2172,77500,2021-05-16 14:47:10:104
0.866,-36.1162,2.8051,0.4531,1.7662,9.6356,0.0274,0.1068,0.5828,-0.0032,-0.7761,-0.2172,77500,2021-05-16 14:47:10:104
0.866,-36.1162,2.8051,0.4531,1.7662,9.6356,0.0274,0.1068,0.5828,-0.0032,-0.7761,-0.2172,77500,2021-05-16 14:47:10:104
0.866,-36.1162,2.8051,0.4531,1.7662,9.6356,0.0274,0.1068,0.5828,-0.0032,-0.7761,-0.2172,77500,2021-05-16 14:47:10:104
0.866,-36.1162,2.8051,0.4531,1.7662,9.6356,0.0274,0.1068,0.5828,-0.0032,-0.7761,-0.2172,77501,2021-05-16 14:47:10:105
0.866,-36.1162,2.8051,0.4531,1.7662,9.6356,0.0274,0.1068,0.5828,-0.0032,-0.7761,-0.2172,77501,2021-05-16 14:47:10:105
0.866,-36.1162,2.8051,0.4531,1.7662,9.6356,0.0274,0.1068,0.5828,-0.0032,-0.7761,-0.2172,77501,2021-05-16 14:47:10:105
0.866,-36.1162,2.8051,0.4531,1.7662,9.6356,0.0274,0.1068,0.5828,-0.0032,-0.7761,-0.2172,77502,2021-05-16 14:47:10:106
0.866,-36.1162,2.8051,0.4531,1.7662,9.6356,0.0274,0.1068,0.5828,-0.0032,-0.7761,-0.2172,77502,2021-05-16 14:47:10:106
0.866,-36.1162,2.8051,0.4531,1.7662,9.6356,0.0274,0.1068,0.5828,-0.0032,-0.7761,-0.2172,77502,2021-05-16 14:47:10:106
0.866,-36.1162,2.8051,0.4531,1.7662,9.6356,0.0274,0.1068,0.5828,-0.0032,-0.7761,-0.2172,77502,2021-05-16 14:47:10:106
0.866,-36.1162,2.8051,0.4531,1.7662,9.6356,0.0274,0.1068,0.5828,-0.0032,-0.7761,-0.2172,77503,2021-05-16 14:47:10:107
0.866,-36.1162,2.8051,0.4531,1.7662,9.6356,0.0274,0.1068,0.5828,-0.0032,-0.7761,-0.2172,77503,2021-05-16 14:47:10:107
0.866,-36.1162,2.8051,0.4531,1.7662,9.6356,0.0274,0.1068,0.5828,-0.0032,-0.7761,-0.2172,77503,2021-05-16 14:47:10:107
0.866,-36.1162,2.8051,0.4531,1.7662,9.6356,0.0274,0.1068,0.5828,-0.0032,-0.7761,-0.2172,77503,2021-05-16 14:47:10:107
0.866,-36.1162,2.8051,0.4531,1.7662,9.6356,0.0274,0.1068,0.5828,-0.0032,-0.7761,-0.2172,77504,2021-05-16 14:47:10:108
0.866,-36.1162,2.8051,0.4531,1.7662,9.6356,0.0274,0.1068,0.5828,-0.0032,-0.7761,-0.2172,77504,2021-05-16 14:47:10:108
0.866,-36.1162,2.8051,0.4531,1.7662,9.6356,0.0274,0.1068,0.5828,-0.0032,-0.7761,-0.2172,77505,2021-05-16 14:47:10:109
0.866,-36.1162,2.8051,0.4531,1.7662,9.6356,0.0274,0.1068,0.5828,-0.0032,-0.7761,-0.2172,77505,2021-05-16 14:47:10:109
0.866,-36.1162,2.8051,0.4531,1.7662,9.6356,0.0274,0.1068,0.5828,-0.0032,-0.7761,-0.2172,77505,2021-05-16 14:47:10:109
0.866,-36.1162,2.8051,0.4531,1.7662,9.6356,0.0274,0.1068,0.5828,-0.0032,-0.7761,-0.2172,77505,2021-05-16 14:47:10:109
0.866,-36.1162,2.8051,0.4531,1.7662,9.6356,0.0274,0.1068,0.5828,-0.0032,-0.7761,-0.2172,77506,2021-05-16 14:47:10:110
0.866,-36.1162,2.8051,0.4531,1.7662,9.6356,0.0274,0.1068,0.5828,-0.0032,-0.7761,-0.2172,77506,2021-05-16 14:47:10:110
0.866,-36.1162,2.8051,0.4531,1.7662,9.6356,0.0274,0.1068,0.5828,-0.0032,-0.7761,-0.2172,77506,2021-05-16 14:47:10:110
0.866,-36.1162,2.8051,0.4531,1.7662,9.6356,0.0274,0.1068,0.5828,-0.0032,-0.7761,-0.2172,77506,2021-05-16 14:47:10:110
0.866,-36.1162,2.8051,0.4531,1.7662,9.6356,0.0274,0.1068,0.5828,-0.0032,-0.7761,-0.2172,77508,2021-05-16 14:47:10:112
0.866,-36.1162,2.8051,0.4531,1.7662,9.6356,0.0274,0.1068,0.5828,-0.0032,-0.7761,-0.2172,77508,2021-05-16 14:47:10:112
0.866,-36.1162,2.8051,0.4531,1.7662,9.6356,0.0274,0.1068,0.5828,-0.0032,-0.7761,-0.2172,77509,2021-05-16 14:47:10:113
0.866,-36.1162,2.8051,0.4531,1.7662,9.6356,0.0274,0.1068,0.5828,-0.0032,-0.7761,-0.2172,77509,2021-05-16 14:47:10:113
0.866,-36.1162,2.8051,0.4531,1.7662,9.6356,0.0274,0.1068,0.5828,-0.0032,-0.7761,-0.2172,77511,2021-05-16 14:47:10:115
0.866,-36.1162,2.8051,0.4531,1.7662,9.6356,0.0274,0.1068,0.5828,-0.0032,-0.7761,-0.2172,77512,2021-05-16 14:47:10:116
0.866,-36.1162,2.8051,0.4531,1.7662,9.6356,0.0274,0.1068,0.5828,-0.0032,-0.7761,-0.2172,77512,2021-05-16 14:47:10:116
0.866,-36.1162,2.8051,0.4531,1.7662,9.6356,0.0274,0.1068,0.5828,-0.0032,-0.7761,-0.2172,77512,2021-05-16 14:47:10:116
0.866,-36.1162,2.8051,0.4531,1.7662,9.6356,0.0274,0.1068,0.5828,-0.0032,-0.7761,-0.2172,77512,2021-05-16 14:47:10:116
0.866,-36.1162,2.8051,0.4531,1.7662,9.6356,0.0274,0.1068,0.5828,-0.0032,-0.7761,-0.2172,77513,2021-05-16 14:47:10:117
0.866,-36.1162,2.8051,0.4531,1.7662,9.6356,0.0274,0.1068,0.5828,-0.0032,-0.7761,-0.2172,77513,2021-05-16 14:47:10:117
0.866,-36.1162,2.8051,0.4531,1.7662,9.6356,0.0274,0.1068,0.5828,-0.0032,-0.7761,-0.2172,77513,2021-05-16 14:47:10:117
0.866,-36.1162,2.8051,0.4531,1.7662,9.6356,0.0274,0.1068,0.5828,-0.0032,-0.7761,-0.2172,77513,2021-05-16 14:47:10:117
0.866,-36.1162,2.8051,0.4531,1.7662,9.6356,0.0274,0.1068,0.5828,-0.0032,-0.7761,-0.2172,77513,2021-05-16 14:47:10:117
0.866,-36.1162,2.8051,0.4531,1.7662,9.6356,0.0274,0.1068,0.5828,-0.0032,-0.7761,-0.2172,77514,2021-05-16 14:47:10:118
0.866,-36.1162,2.8051,0.4531,1.7662,9.6356,0.0274,0.1068,0.5828,-0.0032,-0.7761,-0.2172,77515,2021-05-16 14:47:10:119
0.866,-36.1162,2.8051,0.4531,1.7662,9.6356,0.0274,0.1068,0.5828,-0.0032,-0.7761,-0.2172,77515,2021-05-16 14:47:10:119
0.866,-36.1162,2.8051,0.4531,1.7662,9.6356,0.0274,0.1068,0.5828,-0.0032,-0.7761,-0.2172,77515,2021-05-16 14:47:10:119
0.866,-36.1162,2.8051,0.4531,1.7662,9.6356,0.0274,0.1068,0.5828,-0.0032,-0.7761,-0.2172,77515,2021-05-16 14:47:10:119
0.866,-36.1162,2.8051,0.4531,1.7662,9.6356,0.0274,0.1068,0.5828,-0.0032,-0.7761,-0.2172,77515,2021-05-16 14:47:10:119
0.866,-36.1162,2.8051,0.4531,1.7662,9.6356,0.0274,0.1068,0.5828,-0.0032,-0.7761,-0.2172,77515,2021-05-16 14:47:10:119
0.866,-36.1162,2.8051,0.4531,1.7662,9.6356,0.0274,0.1068,0.5828,-0.0032,-0.7761,-0.2172,77516,2021-05-16 14:47:10:120
0.866,-36.1162,2.8051,0.4531,1.7662,9.6356,0.0274,0.1068,0.5828,-0.0032,-0.7761,-0.2172,77516,2021-05-16 14:47:10:120
0.866,-36.1162,2.8051,0.4531,1.7662,9.6356,0.0274,0.1068,0.5828,-0.0032,-0.7761,-0.2172,77516,2021-05-16 14:47:10:120
0.866,-36.1162,2.8051,0.4531,1.7662,9.6356,0.0274,0.1068,0.5828,-0.0032,-0.7761,-0.2172,77516,2021-05-16 14:47:10:120
0.866,-36.1162,2.8051,0.4531,1.7662,9.6356,0.0274,0.1068,0.5828,-0.0032,-0.7761,-0.2172,77517,2021-05-16 14:47:10:121
0.866,-36.1162,2.8051,0.4531,1.7662,9.6356,0.0274,0.1068,0.5828,-0.0032,-0.7761,-0.2172,77517,2021-05-16 14:47:10:121
0.866,-36.1162,2.8051,0.4531,1.7662,9.6356,0.0274,0.1068,0.5828,-0.0032,-0.7761,-0.2172,77517,2021-05-16 14:47:10:121
0.866,-36.1162,2.8051,0.4531,1.7662,9.6356,0.0274,0.1068,0.5828,-0.0032,-0.7761,-0.2172,77518,2021-05-16 14:47:10:122
0.866,-36.1162,2.8051,0.4531,1.7662,9.6356,0.0274,0.1068,0.5828,-0.0032,-0.7761,-0.2172,77519,2021-05-16 14:47:10:123
0.866,-36.1162,2.8051,0.4531,1.7662,9.6356,0.0274,0.1068,0.5828,-0.0032,-0.7761,-0.2172,77519,2021-05-16 14:47:10:123
0.866,-36.1162,2.8051,0.4531,1.7662,9.6356,0.0274,0.1068,0.5828,-0.0032,-0.7761,-0.2172,77520,2021-05-16 14:47:10:124
0.866,-36.1162,2.8051,0.4531,1.7662,9.6356,0.0274,0.1068,0.5828,-0.0032,-0.7761,-0.2172,77520,2021-05-16 14:47:10:124
0.866,-36.1162,2.8051,0.4531,1.7662,9.6356,0.0274,0.1068,0.5828,-0.0032,-0.7761,-0.2172,77520,2021-05-16 14:47:10:124
0.866,-36.1162,2.8051,0.4531,1.7662,9.6356,0.0274,0.1068,0.5828,-0.0032,-0.7761,-0.2172,77520,2021-05-16 14:47:10:124
0.866,-36.1162,2.8051,0.4531,1.7662,9.6356,0.0274,0.1068,0.5828,-0.0032,-0.7761,-0.2172,77521,2021-05-16 14:47:10:125
0.866,-36.1162,2.8051,0.4531,1.7662,9.6356,0.0274,0.1068,0.5828,-0.0032,-0.7761,-0.2172,77521,2021-05-16 14:47:10:125
0.866,-36.1162,2.8051,0.4531,1.7662,9.6356,0.0274,0.1068,0.5828,-0.0032,-0.7761,-0.2172,77521,2021-05-16 14:47:10:125
0.866,-36.1162,2.8051,0.4531,1.7662,9.6356,0.0274,0.1068,0.5828,-0.0032,-0.7761,-0.2172,77521,2021-05-16 14:47:10:125
0.866,-36.1162,2.8051,0.4531,1.7662,9.6356,0.0274,0.1068,0.5828,-0.0032,-0.7761,-0.2172,77521,2021-05-16 14:47:10:125
0.866,-36.1162,2.8051,0.4531,1.7662,9.6356,0.0274,0.1068,0.5828,-0.0032,-0.7761,-0.2172,77521,2021-05-16 14:47:10:125
0.866,-36.1162,2.8051,0.4531,1.7662,9.6356,0.0274,0.1068,0.5828,-0.0032,-0.7761,-0.2172,77522,2021-05-16 14:47:10:126
0.866,-36.1162,2.8051,0.4531,1.7662,9.6356,0.0274,0.1068,0.5828,-0.0032,-0.7761,-0.2172,77522,2021-05-16 14:47:10:126
0.866,-36.1162,2.8051,0.4531,1.7662,9.6356,0.0274,0.1068,0.5828,-0.0032,-0.7761,-0.2172,77522,2021-05-16 14:47:10:126
0.866,-36.1162,2.8051,0.4531,1.7662,9.6356,0.0274,0.1068,0.5828,-0.0032,-0.7761,-0.2172,77523,2021-05-16 14:47:10:127
0.866,-36.1162,2.8051,0.4531,1.7662,9.6356,0.0274,0.1068,0.5828,-0.0032,-0.7761,-0.2172,77523,2021-05-16 14:47:10:127
0.866,-36.1162,2.8051,0.4531,1.7662,9.6356,0.0274,0.1068,0.5828,-0.0032,-0.7761,-0.2172,77523,2021-05-16 14:47:10:127
0.866,-36.1162,2.8051,0.4531,1.7662,9.6356,0.0274,0.1068,0.5828,-0.0032,-0.7761,-0.2172,77523,2021-05-16 14:47:10:127
0.866,-36.1162,2.8051,0.4531,1.7662,9.6356,0.0274,0.1068,0.5828,-0.0032,-0.7761,-0.2172,77523,2021-05-16 14:47:10:127
0.866,-36.1162,2.8051,0.4531,1.7662,9.6356,0.0274,0.1068,0.5828,-0.0032,-0.7761,-0.2172,77524,2021-05-16 14:47:10:128
0.866,-36.1162,2.8051,0.4531,1.7662,9.6356,0.0274,0.1068,0.5828,-0.0032,-0.7761,-0.2172,77524,2021-05-16 14:47:10:128
0.866,-36.1162,2.8051,0.4531,1.7662,9.6356,0.0274,0.1068,0.5828,-0.0032,-0.7761,-0.2172,77524,2021-05-16 14:47:10:128
0.866,-36.1162,2.8051,0.4531,1.7662,9.6356,0.0274,0.1068,0.5828,-0.0032,-0.7761,-0.2172,77524,2021-05-16 14:47:10:128
0.866,-36.1162,2.8051,0.4531,1.7662,9.6356,0.0274,0.1068,0.5828,-0.0032,-0.7761,-0.2172,77524,2021-05-16 14:47:10:128
0.866,-36.1162,2.8051,0.4531,1.7662,9.6356,0.0274,0.1068,0.5828,-0.0032,-0.7761,-0.2172,77524,2021-05-16 14:47:10:128
0.866,-36.1162,2.8051,0.4531,1.7662,9.6356,0.0274,0.1068,0.5828,-0.0032,-0.7761,-0.2172,77524,2021-05-16 14:47:10:128
0.866,-36.1162,2.8051,0.4531,1.7662,9.6356,0.0274,0.1068,0.5828,-0.0032,-0.7761,-0.2172,77525,2021-05-16 14:47:10:129
0.866,-36.1162,2.8051,0.4531,1.7662,9.6356,0.0274,0.1068,0.5828,-0.0032,-0.7761,-0.2172,77525,2021-05-16 14:47:10:129
0.866,-36.1162,2.8051,0.4531,1.7662,9.6356,0.0274,0.1068,0.5828,-0.0032,-0.7761,-0.2172,77525,2021-05-16 14:47:10:129
0.866,-36.1162,2.8051,0.4531,1.7662,9.6356,0.0274,0.1068,0.5828,-0.0032,-0.7761,-0.2172,77525,2021-05-16 14:47:10:129
0.866,-36.1162,2.8051,0.4531,1.7662,9.6356,0.0274,0.1068,0.5828,-0.0032,-0.7761,-0.2172,77525,2021-05-16 14:47:10:129
0.866,-36.1162,2.8051,0.4531,1.7662,9.6356,0.0274,0.1068,0.5828,-0.0032,-0.7761,-0.2172,77526,2021-05-16 14:47:10:130
0.866,-36.1162,2.8051,0.4531,1.7662,9.6356,0.0274,0.1068,0.5828,-0.0032,-0.7761,-0.2172,77526,2021-05-16 14:47:10:130
0.866,-36.1162,2.8051,0.4531,1.7662,9.6356,0.0274,0.1068,0.5828,-0.0032,-0.7761,-0.2172,77526,2021-05-16 14:47:10:130
0.866,-36.1162,2.8051,0.4531,1.7662,9.6356,0.0274,0.1068,0.5828,-0.0032,-0.7761,-0.2172,77527,2021-05-16 14:47:10:131
0.866,-36.1162,2.8051,0.4531,1.7662,9.6356,0.0274,0.1068,0.5828,-0.0032,-0.7761,-0.2172,77527,2021-05-16 14:47:10:131
0.866,-36.1162,2.8051,0.4531,1.7662,9.6356,0.0274,0.1068,0.5828,-0.0032,-0.7761,-0.2172,77527,2021-05-16 14:47:10:131
0.866,-36.1162,2.8051,0.4531,1.7662,9.6356,0.0274,0.1068,0.5828,-0.0032,-0.7761,-0.2172,77527,2021-05-16 14:47:10:131
0.866,-36.1162,2.8051,0.4531,1.7662,9.6356,0.0274,0.1068,0.5828,-0.0032,-0.7761,-0.2172,77527,2021-05-16 14:47:10:131
0.866,-36.1162,2.8051,0.4531,1.7662,9.6356,0.0274,0.1068,0.5828,-0.0032,-0.7761,-0.2172,77528,2021-05-16 14:47:10:132
0.866,-36.1162,2.8051,0.4531,1.7662,9.6356,0.0274,0.1068,0.5828,-0.0032,-0.7761,-0.2172,77528,2021-05-16 14:47:10:132
0.866,-36.1162,2.8051,0.4531,1.7662,9.6356,0.0274,0.1068,0.5828,-0.0032,-0.7761,-0.2172,77528,2021-05-16 14:47:10:132
0.866,-36.1162,2.8051,0.4531,1.7662,9.6356,0.0274,0.1068,0.5828,-0.0032,-0.7761,-0.2172,77528,2021-05-16 14:47:10:132
0.866,-36.1162,2.8051,0.4531,1.7662,9.6356,0.0274,0.1068,0.5828,-0.0032,-0.7761,-0.2172,77528,2021-05-16 14:47:10:132
0.866,-36.1162,2.8051,0.4531,1.7662,9.6356,0.0274,0.1068,0.5828,-0.0032,-0.7761,-0.2172,77528,2021-05-16 14:47:10:132
0.866,-36.1162,2.8051,0.4531,1.7662,9.6356,0.0274,0.1068,0.5828,-0.0032,-0.7761,-0.2172,77529,2021-05-16 14:47:10:133
0.866,-36.1162,2.8051,0.4531,1.7662,9.6356,0.0274,0.1068,0.5828,-0.0032,-0.7761,-0.2172,77529,2021-05-16 14:47:10:133
0.866,-36.1162,2.8051,0.4531,1.7662,9.6356,0.0274,0.1068,0.5828,-0.0032,-0.7761,-0.2172,77529,2021-05-16 14:47:10:133
0.866,-36.1162,2.8051,0.4531,1.7662,9.6356,0.0274,0.1068,0.5828,-0.0032,-0.7761,-0.2172,77529,2021-05-16 14:47:10:133
0.866,-36.1162,2.8051,0.4531,1.7662,9.6356,0.0274,0.1068,0.5828,-0.0032,-0.7761,-0.2172,77529,2021-05-16 14:47:10:133
0.866,-36.1162,2.8051,0.4531,1.7662,9.6356,0.0274,0.1068,0.5828,-0.0032,-0.7761,-0.2172,77530,2021-05-16 14:47:10:134
0.866,-36.1162,2.8051,0.4531,1.7662,9.6356,0.0274,0.1068,0.5828,-0.0032,-0.7761,-0.2172,77530,2021-05-16 14:47:10:134
0.866,-36.1162,2.8051,0.4531,1.7662,9.6356,0.0274,0.1068,0.5828,-0.0032,-0.7761,-0.2172,77530,2021-05-16 14:47:10:134
0.866,-36.1162,2.8051,0.4531,1.7662,9.6356,0.0274,0.1068,0.5828,-0.0032,-0.7761,-0.2172,77530,2021-05-16 14:47:10:134
0.866,-36.1162,2.8051,0.4531,1.7662,9.6356,0.0274,0.1068,0.5828,-0.0032,-0.7761,-0.2172,77531,2021-05-16 14:47:10:135
0.866,-36.1162,2.8051,0.4531,1.7662,9.6356,0.0274,0.1068,0.5828,-0.0032,-0.7761,-0.2172,77531,2021-05-16 14:47:10:135
0.866,-36.1162,2.8051,0.4531,1.7662,9.6356,0.0274,0.1068,0.5828,-0.0032,-0.7761,-0.2172,77531,2021-05-16 14:47:10:135
0.866,-36.1162,2.8051,0.4531,1.7662,9.6356,0.0274,0.1068,0.5828,-0.0032,-0.7761,-0.2172,77531,2021-05-16 14:47:10:135
0.866,-36.1162,2.8051,0.4531,1.7662,9.6356,0.0274,0.1068,0.5828,-0.0032,-0.7761,-0.2172,77532,2021-05-16 14:47:10:136
0.866,-36.1162,2.8051,0.4531,1.7662,9.6356,0.0274,0.1068,0.5828,-0.0032,-0.7761,-0.2172,77532,2021-05-16 14:47:10:136
0.866,-36.1162,2.8051,0.4531,1.7662,9.6356,0.0274,0.1068,0.5828,-0.0032,-0.7761,-0.2172,77532,2021-05-16 14:47:10:136
0.866,-36.1162,2.8051,0.4531,1.7662,9.6356,0.0274,0.1068,0.5828,-0.0032,-0.7761,-0.2172,77532,2021-05-16 14:47:10:136
0.866,-36.1162,2.8051,0.4531,1.7662,9.6356,0.0274,0.1068,0.5828,-0.0032,-0.7761,-0.2172,77532,2021-05-16 14:47:10:136
0.866,-36.1162,2.8051,0.4531,1.7662,9.6356,0.0274,0.1068,0.5828,-0.0032,-0.7761,-0.2172,77533,2021-05-16 14:47:10:137
0.866,-36.1162,2.8051,0.4531,1.7662,9.6356,0.0274,0.1068,0.5828,-0.0032,-0.7761,-0.2172,77533,2021-05-16 14:47:10:137
0.866,-36.1162,2.8051,0.4531,1.7662,9.6356,0.0274,0.1068,0.5828,-0.0032,-0.7761,-0.2172,77533,2021-05-16 14:47:10:137
0.866,-36.1162,2.8051,0.4531,1.7662,9.6356,0.0274,0.1068,0.5828,-0.0032,-0.7761,-0.2172,77533,2021-05-16 14:47:10:137
0.866,-36.1162,2.8051,0.4531,1.7662,9.6356,0.0274,0.1068,0.5828,-0.0032,-0.7761,-0.2172,77533,2021-05-16 14:47:10:137
0.866,-36.1162,2.8051,0.4531,1.7662,9.6356,0.0274,0.1068,0.5828,-0.0032,-0.7761,-0.2172,77533,2021-05-16 14:47:10:137
0.866,-36.1162,2.8051,0.4531,1.7662,9.6356,0.0274,0.1068,0.5828,-0.0032,-0.7761,-0.2172,77533,2021-05-16 14:47:10:137
0.866,-36.1162,2.8051,0.4531,1.7662,9.6356,0.0274,0.1068,0.5828,-0.0032,-0.7761,-0.2172,77535,2021-05-16 14:47:10:139
0.866,-36.1162,2.8051,0.4531,1.7662,9.6356,0.0274,0.1068,0.5828,-0.0032,-0.7761,-0.2172,77535,2021-05-16 14:47:10:139
0.866,-36.1162,2.8051,0.4531,1.7662,9.6356,0.0274,0.1068,0.5828,-0.0032,-0.7761,-0.2172,77535,2021-05-16 14:47:10:139
0.866,-36.1162,2.8051,0.4531,1.7662,9.6356,0.0274,0.1068,0.5828,-0.0032,-0.7761,-0.2172,77536,2021-05-16 14:47:10:140
0.866,-36.1162,2.8051,0.4531,1.7662,9.6356,0.0274,0.1068,0.5828,-0.0032,-0.7761,-0.2172,77536,2021-05-16 14:47:10:140
0.866,-36.1162,2.8051,0.4531,1.7662,9.6356,0.0274,0.1068,0.5828,-0.0032,-0.7761,-0.2172,77536,2021-05-16 14:47:10:140
0.866,-36.1162,2.8051,0.4531,1.7662,9.6356,0.0274,0.1068,0.5828,-0.0032,-0.7761,-0.2172,77536,2021-05-16 14:47:10:140
0.866,-36.1162,2.8051,0.4531,1.7662,9.6356,0.0274,0.1068,0.5828,-0.0032,-0.7761,-0.2172,77536,2021-05-16 14:47:10:140
0.866,-36.1162,2.8051,0.4531,1.7662,9.6356,0.0274,0.1068,0.5828,-0.0032,-0.7761,-0.2172,77537,2021-05-16 14:47:10:141
0.866,-36.1162,2.8051,0.4531,1.7662,9.6356,0.0274,0.1068,0.5828,-0.0032,-0.7761,-0.2172,77537,2021-05-16 14:47:10:141
0.866,-36.1162,2.8051,0.4531,1.7662,9.6356,0.0274,0.1068,0.5828,-0.0032,-0.7761,-0.2172,77537,2021-05-16 14:47:10:141
0.866,-36.1162,2.8051,0.4531,1.7662,9.6356,0.0274,0.1068,0.5828,-0.0032,-0.7761,-0.2172,77538,2021-05-16 14:47:10:142
0.866,-36.1162,2.8051,0.4531,1.7662,9.6356,0.0274,0.1068,0.5828,-0.0032,-0.7761,-0.2172,77538,2021-05-16 14:47:10:142
0.866,-36.1162,2.8051,0.4531,1.7662,9.6356,0.0274,0.1068,0.5828,-0.0032,-0.7761,-0.2172,77538,2021-05-16 14:47:10:142
0.866,-36.1162,2.8051,0.4531,1.7662,9.6356,0.0274,0.1068,0.5828,-0.0032,-0.7761,-0.2172,77538,2021-05-16 14:47:10:142
0.866,-36.1162,2.8051,0.4531,1.7662,9.6356,0.0274,0.1068,0.5828,-0.0032,-0.7761,-0.2172,77539,2021-05-16 14:47:10:143
0.866,-36.1162,2.8051,0.4531,1.7662,9.6356,0.0274,0.1068,0.5828,-0.0032,-0.7761,-0.2172,77540,2021-05-16 14:47:10:144
0.866,-36.1162,2.8051,0.4531,1.7662,9.6356,0.0274,0.1068,0.5828,-0.0032,-0.7761,-0.2172,77540,2021-05-16 14:47:10:144
0.866,-36.1162,2.8051,0.4531,1.7662,9.6356,0.0274,0.1068,0.5828,-0.0032,-0.7761,-0.2172,77540,2021-05-16 14:47:10:144
0.866,-36.1162,2.8051,0.4531,1.7662,9.6356,0.0274,0.1068,0.5828,-0.0032,-0.7761,-0.2172,77540,2021-05-16 14:47:10:144
0.866,-36.1162,2.8051,0.4531,1.7662,9.6356,0.0274,0.1068,0.5828,-0.0032,-0.7761,-0.2172,77540,2021-05-16 14:47:10:144
0.866,-36.1162,2.8051,0.4531,1.7662,9.6356,0.0274,0.1068,0.5828,-0.0032,-0.7761,-0.2172,77542,2021-05-16 14:47:10:146
0.866,-36.1162,2.8051,0.4531,1.7662,9.6356,0.0274,0.1068,0.5828,-0.0032,-0.7761,-0.2172,77542,2021-05-16 14:47:10:146
0.866,-36.1162,2.8051,0.4531,1.7662,9.6356,0.0274,0.1068,0.5828,-0.0032,-0.7761,-0.2172,77542,2021-05-16 14:47:10:146
0.866,-36.1162,2.8051,0.4531,1.7662,9.6356,0.0274,0.1068,0.5828,-0.0032,-0.7761,-0.2172,77543,2021-05-16 14:47:10:147
0.866,-36.1162,2.8051,0.4531,1.7662,9.6356,0.0274,0.1068,0.5828,-0.0032,-0.7761,-0.2172,77544,2021-05-16 14:47:10:148
0.866,-36.1162,2.8051,0.4531,1.7662,9.6356,0.0274,0.1068,0.5828,-0.0032,-0.7761,-0.2172,77544,2021-05-16 14:47:10:148
0.866,-36.1162,2.8051,0.4531,1.7662,9.6356,0.0274,0.1068,0.5828,-0.0032,-0.7761,-0.2172,77544,2021-05-16 14:47:10:148
0.866,-36.1162,2.8051,0.4531,1.7662,9.6356,0.0274,0.1068,0.5828,-0.0032,-0.7761,-0.2172,77545,2021-05-16 14:47:10:149
0.866,-36.1162,2.8051,0.4531,1.7662,9.6356,0.0274,0.1068,0.5828,-0.0032,-0.7761,-0.2172,77545,2021-05-16 14:47:10:149
0.866,-36.1162,2.8051,0.4531,1.7662,9.6356,0.0274,0.1068,0.5828,-0.0032,-0.7761,-0.2172,77545,2021-05-16 14:47:10:149
0.866,-36.1162,2.8051,0.4531,1.7662,9.6356,0.0274,0.1068,0.5828,-0.0032,-0.7761,-0.2172,77545,2021-05-16 14:47:10:149
0.866,-36.1162,2.8051,0.4531,1.7662,9.6356,0.0274,0.1068,0.5828,-0.0032,-0.7761,-0.2172,77545,2021-05-16 14:47:10:149
0.866,-36.1162,2.8051,0.4531,1.7662,9.6356,0.0274,0.1068,0.5828,-0.0032,-0.7761,-0.2172,77546,2021-05-16 14:47:10:150
0.866,-36.1162,2.8051,0.4531,1.7662,9.6356,0.0274,0.1068,0.5828,-0.0032,-0.7761,-0.2172,77546,2021-05-16 14:47:10:150
0.866,-36.1162,2.8051,0.4531,1.7662,9.6356,0.0274,0.1068,0.5828,-0.0032,-0.7761,-0.2172,77546,2021-05-16 14:47:10:150
0.866,-36.1162,2.8051,0.4531,1.7662,9.6356,0.0274,0.1068,0.5828,-0.0032,-0.7761,-0.2172,77547,2021-05-16 14:47:10:151
0.866,-36.1162,2.8051,0.4531,1.7662,9.6356,0.0274,0.1068,0.5828,-0.0032,-0.7761,-0.2172,77547,2021-05-16 14:47:10:151
0.866,-36.1162,2.8051,0.4531,1.7662,9.6356,0.0274,0.1068,0.5828,-0.0032,-0.7761,-0.2172,77548,2021-05-16 14:47:10:152
0.866,-36.1162,2.8051,0.4531,1.7662,9.6356,0.0274,0.1068,0.5828,-0.0032,-0.7761,-0.2172,77548,2021-05-16 14:47:10:152
0.866,-36.1162,2.8051,0.4531,1.7662,9.6356,0.0274,0.1068,0.5828,-0.0032,-0.7761,-0.2172,77549,2021-05-16 14:47:10:153
0.866,-36.1162,2.8051,0.4531,1.7662,9.6356,0.0274,0.1068,0.5828,-0.0032,-0.7761,-0.2172,77549,2021-05-16 14:47:10:153
0.866,-36.1162,2.8051,0.4531,1.7662,9.6356,0.0274,0.1068,0.5828,-0.0032,-0.7761,-0.2172,77549,2021-05-16 14:47:10:153
0.866,-36.1162,2.8051,0.4531,1.7662,9.6356,0.0274,0.1068,0.5828,-0.0032,-0.7761,-0.2172,77549,2021-05-16 14:47:10:153
0.866,-36.1162,2.8051,0.4531,1.7662,9.6356,0.0274,0.1068,0.5828,-0.0032,-0.7761,-0.2172,77549,2021-05-16 14:47:10:153
0.866,-36.1162,2.8051,0.4531,1.7662,9.6356,0.0274,0.1068,0.5828,-0.0032,-0.7761,-0.2172,77550,2021-05-16 14:47:10:154
0.866,-36.1162,2.8051,0.4531,1.7662,9.6356,0.0274,0.1068,0.5828,-0.0032,-0.7761,-0.2172,77550,2021-05-16 14:47:10:154
0.866,-36.1162,2.8051,0.4531,1.7662,9.6356,0.0274,0.1068,0.5828,-0.0032,-0.7761,-0.2172,77550,2021-05-16 14:47:10:154
0.866,-36.1162,2.8051,0.4531,1.7662,9.6356,0.0274,0.1068,0.5828,-0.0032,-0.7761,-0.2172,77550,2021-05-16 14:47:10:154
0.866,-36.1162,2.8051,0.4531,1.7662,9.6356,0.0274,0.1068,0.5828,-0.0032,-0.7761,-0.2172,77551,2021-05-16 14:47:10:155
0.866,-36.1162,2.8051,0.4531,1.7662,9.6356,0.0274,0.1068,0.5828,-0.0032,-0.7761,-0.2172,77552,2021-05-16 14:47:10:156
0.866,-36.1162,2.8051,0.4531,1.7662,9.6356,0.0274,0.1068,0.5828,-0.0032,-0.7761,-0.2172,77553,2021-05-16 14:47:10:157
0.866,-36.1162,2.8051,0.4531,1.7662,9.6356,0.0274,0.1068,0.5828,-0.0032,-0.7761,-0.2172,77554,2021-05-16 14:47:10:158
0.866,-36.1162,2.8051,0.4531,1.7662,9.6356,0.0274,0.1068,0.5828,-0.0032,-0.7761,-0.2172,77554,2021-05-16 14:47:10:158
0.866,-36.1162,2.8051,0.4531,1.7662,9.6356,0.0274,0.1068,0.5828,-0.0032,-0.7761,-0.2172,77555,2021-05-16 14:47:10:159
0.866,-36.1162,2.8051,0.4531,1.7662,9.6356,0.0274,0.1068,0.5828,-0.0032,-0.7761,-0.2172,77555,2021-05-16 14:47:10:159
0.866,-36.1162,2.8051,0.4531,1.7662,9.6356,0.0274,0.1068,0.5828,-0.0032,-0.7761,-0.2172,77555,2021-05-16 14:47:10:159
0.866,-36.1162,2.8051,0.4531,1.7662,9.6356,0.0274,0.1068,0.5828,-0.0032,-0.7761,-0.2172,77555,2021-05-16 14:47:10:159
0.866,-36.1162,2.8051,0.4531,1.7662,9.6356,0.0274,0.1068,0.5828,-0.0032,-0.7761,-0.2172,77556,2021-05-16 14:47:10:160
0.866,-36.1162,2.8051,0.4531,1.7662,9.6356,0.0274,0.1068,0.5828,-0.0032,-0.7761,-0.2172,77556,2021-05-16 14:47:10:160
0.866,-36.1162,2.8051,0.4531,1.7662,9.6356,0.0274,0.1068,0.5828,-0.0032,-0.7761,-0.2172,77556,2021-05-16 14:47:10:160
0.866,-36.1162,2.8051,0.4531,1.7662,9.6356,0.0274,0.1068,0.5828,-0.0032,-0.7761,-0.2172,77556,2021-05-16 14:47:10:160
0.866,-36.1162,2.8051,0.4531,1.7662,9.6356,0.0274,0.1068,0.5828,-0.0032,-0.7761,-0.2172,77556,2021-05-16 14:47:10:160
0.866,-36.1162,2.8051,0.4531,1.7662,9.6356,0.0274,0.1068,0.5828,-0.0032,-0.7761,-0.2172,77557,2021-05-16 14:47:10:161
0.866,-36.1162,2.8051,0.4531,1.7662,9.6356,0.0274,0.1068,0.5828,-0.0032,-0.7761,-0.2172,77557,2021-05-16 14:47:10:161
0.866,-36.1162,2.8051,0.4531,1.7662,9.6356,0.0274,0.1068,0.5828,-0.0032,-0.7761,-0.2172,77557,2021-05-16 14:47:10:161
0.866,-36.1162,2.8051,0.4531,1.7662,9.6356,0.0274,0.1068,0.5828,-0.0032,-0.7761,-0.2172,77557,2021-05-16 14:47:10:161
0.866,-36.1162,2.8051,0.4531,1.7662,9.6356,0.0274,0.1068,0.5828,-0.0032,-0.7761,-0.2172,77557,2021-05-16 14:47:10:161
0.866,-36.1162,2.8051,0.4531,1.7662,9.6356,0.0274,0.1068,0.5828,-0.0032,-0.7761,-0.2172,77558,2021-05-16 14:47:10:162
0.866,-36.1162,2.8051,0.4531,1.7662,9.6356,0.0274,0.1068,0.5828,-0.0032,-0.7761,-0.2172,77558,2021-05-16 14:47:10:162
0.866,-36.1162,2.8051,0.4531,1.7662,9.6356,0.0274,0.1068,0.5828,-0.0032,-0.7761,-0.2172,77558,2021-05-16 14:47:10:162
0.866,-36.1162,2.8051,0.4531,1.7662,9.6356,0.0274,0.1068,0.5828,-0.0032,-0.7761,-0.2172,77559,2021-05-16 14:47:10:163
0.866,-36.1162,2.8051,0.4531,1.7662,9.6356,0.0274,0.1068,0.5828,-0.0032,-0.7761,-0.2172,77559,2021-05-16 14:47:10:163
0.866,-36.1162,2.8051,0.4531,1.7662,9.6356,0.0274,0.1068,0.5828,-0.0032,-0.7761,-0.2172,77559,2021-05-16 14:47:10:163
0.866,-36.1162,2.8051,0.4531,1.7662,9.6356,0.0274,0.1068,0.5828,-0.0032,-0.7761,-0.2172,77559,2021-05-16 14:47:10:163
0.866,-36.1162,2.8051,0.4531,1.7662,9.6356,0.0274,0.1068,0.5828,-0.0032,-0.7761,-0.2172,77559,2021-05-16 14:47:10:163
0.866,-36.1162,2.8051,0.4531,1.7662,9.6356,0.0274,0.1068,0.5828,-0.0032,-0.7761,-0.2172,77559,2021-05-16 14:47:10:163
0.866,-36.1162,2.8051,0.4531,1.7662,9.6356,0.0274,0.1068,0.5828,-0.0032,-0.7761,-0.2172,77559,2021-05-16 14:47:10:163
0.866,-36.1162,2.8051,0.4531,1.7662,9.6356,0.0274,0.1068,0.5828,-0.0032,-0.7761,-0.2172,77559,2021-05-16 14:47:10:163
0.866,-36.1162,2.8051,0.4531,1.7662,9.6356,0.0274,0.1068,0.5828,-0.0032,-0.7761,-0.2172,77560,2021-05-16 14:47:10:164
0.866,-36.1162,2.8051,0.4531,1.7662,9.6356,0.0274,0.1068,0.5828,-0.0032,-0.7761,-0.2172,77560,2021-05-16 14:47:10:164
0.866,-36.1162,2.8051,0.4531,1.7662,9.6356,0.0274,0.1068,0.5828,-0.0032,-0.7761,-0.2172,77560,2021-05-16 14:47:10:164
0.866,-36.1162,2.8051,0.4531,1.7662,9.6356,0.0274,0.1068,0.5828,-0.0032,-0.7761,-0.2172,77560,2021-05-16 14:47:10:164
0.866,-36.1162,2.8051,0.4531,1.7662,9.6356,0.0274,0.1068,0.5828,-0.0032,-0.7761,-0.2172,77560,2021-05-16 14:47:10:164
0.866,-36.1162,2.8051,0.4531,1.7662,9.6356,0.0274,0.1068,0.5828,-0.0032,-0.7761,-0.2172,77560,2021-05-16 14:47:10:164
0.866,-36.1162,2.8051,0.4531,1.7662,9.6356,0.0274,0.1068,0.5828,-0.0032,-0.7761,-0.2172,77561,2021-05-16 14:47:10:165
0.866,-36.1162,2.8051,0.4531,1.7662,9.6356,0.0274,0.1068,0.5828,-0.0032,-0.7761,-0.2172,77561,2021-05-16 14:47:10:165
0.866,-36.1162,2.8051,0.4531,1.7662,9.6356,0.0274,0.1068,0.5828,-0.0032,-0.7761,-0.2172,77561,2021-05-16 14:47:10:165
0.866,-36.1162,2.8051,0.4531,1.7662,9.6356,0.0274,0.1068,0.5828,-0.0032,-0.7761,-0.2172,77561,2021-05-16 14:47:10:165
0.866,-36.1162,2.8051,0.4531,1.7662,9.6356,0.0274,0.1068,0.5828,-0.0032,-0.7761,-0.2172,77561,2021-05-16 14:47:10:165
0.866,-36.1162,2.8051,0.4531,1.7662,9.6356,0.0274,0.1068,0.5828,-0.0032,-0.7761,-0.2172,77561,2021-05-16 14:47:10:165
0.866,-36.1162,2.8051,0.4531,1.7662,9.6356,0.0274,0.1068,0.5828,-0.0032,-0.7761,-0.2172,77561,2021-05-16 14:47:10:165
0.866,-36.1162,2.8051,0.4531,1.7662,9.6356,0.0274,0.1068,0.5828,-0.0032,-0.7761,-0.2172,77562,2021-05-16 14:47:10:166
0.866,-36.1162,2.8051,0.4531,1.7662,9.6356,0.0274,0.1068,0.5828,-0.0032,-0.7761,-0.2172,77562,2021-05-16 14:47:10:166
0.866,-36.1162,2.8051,0.4531,1.7662,9.6356,0.0274,0.1068,0.5828,-0.0032,-0.7761,-0.2172,77562,2021-05-16 14:47:10:166
0.866,-36.1162,2.8051,0.4531,1.7662,9.6356,0.0274,0.1068,0.5828,-0.0032,-0.7761,-0.2172,77562,2021-05-16 14:47:10:166
0.866,-36.1162,2.8051,0.4531,1.7662,9.6356,0.0274,0.1068,0.5828,-0.0032,-0.7761,-0.2172,77562,2021-05-16 14:47:10:166
0.866,-36.1162,2.8051,0.4531,1.7662,9.6356,0.0274,0.1068,0.5828,-0.0032,-0.7761,-0.2172,77563,2021-05-16 14:47:10:167
0.866,-36.1162,2.8051,0.4531,1.7662,9.6356,0.0274,0.1068,0.5828,-0.0032,-0.7761,-0.2172,77563,2021-05-16 14:47:10:167
0.866,-36.1162,2.8051,0.4531,1.7662,9.6356,0.0274,0.1068,0.5828,-0.0032,-0.7761,-0.2172,77563,2021-05-16 14:47:10:167
0.2524,1.7963,8.644,1.0636,1.7805,9.5848,-1.2303,-0.0349,-0.798,-0.0032,-0.7761,-0.2172,77565,2021-05-16 14:47:10:169
0.2524,1.7963,8.644,1.0636,1.7805,9.5848,-1.2303,-0.0349,-0.798,-0.0032,-0.7761,-0.2172,77565,2021-05-16 14:47:10:169
0.2524,1.7963,8.644,1.0636,1.7805,9.5848,-1.2303,-0.0349,-0.798,-0.0032,-0.7761,-0.2172,77566,2021-05-16 14:47:10:170
0.2524,1.7963,8.644,1.0636,1.7805,9.5848,-1.2303,-0.0349,-0.798,-0.0032,-0.7761,-0.2172,77566,2021-05-16 14:47:10:170
0.2524,1.7963,8.644,1.0636,1.7805,9.5848,-1.2303,-0.0349,-0.798,-0.0032,-0.7761,-0.2172,77566,2021-05-16 14:47:10:170
0.2524,1.7963,8.644,1.0636,1.7805,9.5848,-1.2303,-0.0349,-0.798,-0.0032,-0.7761,-0.2172,77566,2021-05-16 14:47:10:170
0.2524,1.7963,8.644,1.0636,1.7805,9.5848,-1.2303,-0.0349,-0.798,-0.0032,-0.7761,-0.2172,77567,2021-05-16 14:47:10:171
0.2524,1.7963,8.644,1.0636,1.7805,9.5848,-1.2303,-0.0349,-0.798,-0.0032,-0.7761,-0.2172,77567,2021-05-16 14:47:10:171
0.2524,1.7963,8.644,1.0636,1.7805,9.5848,-1.2303,-0.0349,-0.798,-0.0032,-0.7761,-0.2172,77567,2021-05-16 14:47:10:171
0.2524,1.7963,8.644,1.0636,1.7805,9.5848,-1.2303,-0.0349,-0.798,-0.0032,-0.7761,-0.2172,77570,2021-05-16 14:47:10:174
0.2524,1.7963,8.644,1.0636,1.7805,9.5848,-1.2303,-0.0349,-0.798,-0.0032,-0.7761,-0.2172,77570,2021-05-16 14:47:10:174
0.2524,1.7963,8.644,1.0636,1.7805,9.5848,-1.2303,-0.0349,-0.798,-0.0032,-0.7761,-0.2172,77570,2021-05-16 14:47:10:174
0.2524,1.7963,8.644,1.0636,1.7805,9.5848,-1.2303,-0.0349,-0.798,-0.0032,-0.7761,-0.2172,77571,2021-05-16 14:47:10:175
0.2524,1.7963,8.644,1.0636,1.7805,9.5848,-1.2303,-0.0349,-0.798,-0.0032,-0.7761,-0.2172,77571,2021-05-16 14:47:10:175
0.2524,1.7963,8.644,1.0636,1.7805,9.5848,-1.2303,-0.0349,-0.798,-0.0032,-0.7761,-0.2172,77571,2021-05-16 14:47:10:175
0.2524,1.7963,8.644,1.0636,1.7805,9.5848,-1.2303,-0.0349,-0.798,-0.0032,-0.7761,-0.2172,77571,2021-05-16 14:47:10:175
0.2524,1.7963,8.644,1.0636,1.7805,9.5848,-1.2303,-0.0349,-0.798,-0.0032,-0.7761,-0.2172,77572,2021-05-16 14:47:10:176
0.2524,1.7963,8.644,1.0636,1.7805,9.5848,-1.2303,-0.0349,-0.798,-0.0032,-0.7761,-0.2172,77572,2021-05-16 14:47:10:176
0.2524,1.7963,8.644,1.0636,1.7805,9.5848,-1.2303,-0.0349,-0.798,-0.0032,-0.7761,-0.2172,77572,2021-05-16 14:47:10:176
0.2524,1.7963,8.644,1.0636,1.7805,9.5848,-1.2303,-0.0349,-0.798,-0.0032,-0.7761,-0.2172,77573,2021-05-16 14:47:10:177
0.2524,1.7963,8.644,1.0636,1.7805,9.5848,-1.2303,-0.0349,-0.798,-0.0032,-0.7761,-0.2172,77573,2021-05-16 14:47:10:177
0.2524,1.7963,8.644,1.0636,1.7805,9.5848,-1.2303,-0.0349,-0.798,-0.0032,-0.7761,-0.2172,77573,2021-05-16 14:47:10:177
0.2524,1.7963,8.644,1.0636,1.7805,9.5848,-1.2303,-0.0349,-0.798,-0.0032,-0.7761,-0.2172,77573,2021-05-16 14:47:10:177
0.2524,1.7963,8.644,1.0636,1.7805,9.5848,-1.2303,-0.0349,-0.798,-0.0032,-0.7761,-0.2172,77573,2021-05-16 14:47:10:177
0.2524,1.7963,8.644,1.0636,1.7805,9.5848,-1.2303,-0.0349,-0.798,-0.0032,-0.7761,-0.2172,77574,2021-05-16 14:47:10:178
0.2524,1.7963,8.644,1.0636,1.7805,9.5848,-1.2303,-0.0349,-0.798,-0.0032,-0.7761,-0.2172,77574,2021-05-16 14:47:10:178
0.2524,1.7963,8.644,1.0636,1.7805,9.5848,-1.2303,-0.0349,-0.798,-0.0032,-0.7761,-0.2172,77574,2021-05-16 14:47:10:178
0.2524,1.7963,8.644,1.0636,1.7805,9.5848,-1.2303,-0.0349,-0.798,-0.0032,-0.7761,-0.2172,77574,2021-05-16 14:47:10:178
0.2524,1.7963,8.644,1.0636,1.7805,9.5848,-1.2303,-0.0349,-0.798,-0.0032,-0.7761,-0.2172,77574,2021-05-16 14:47:10:178
0.2524,1.7963,8.644,1.0636,1.7805,9.5848,-1.2303,-0.0349,-0.798,-0.0032,-0.7761,-0.2172,77574,2021-05-16 14:47:10:178
0.2524,1.7963,8.644,1.0636,1.7805,9.5848,-1.2303,-0.0349,-0.798,-0.0032,-0.7761,-0.2172,77574,2021-05-16 14:47:10:178
0.2524,1.7963,8.644,1.0636,1.7805,9.5848,-1.2303,-0.0349,-0.798,-0.0032,-0.7761,-0.2172,77574,2021-05-16 14:47:10:178
0.2524,1.7963,8.644,1.0636,1.7805,9.5848,-1.2303,-0.0349,-0.798,-0.0032,-0.7761,-0.2172,77575,2021-05-16 14:47:10:179
0.2524,1.7963,8.644,1.0636,1.7805,9.5848,-1.2303,-0.0349,-0.798,-0.0032,-0.7761,-0.2172,77575,2021-05-16 14:47:10:179
0.2524,1.7963,8.644,1.0636,1.7805,9.5848,-1.2303,-0.0349,-0.798,-0.0032,-0.7761,-0.2172,77575,2021-05-16 14:47:10:179
0.2524,1.7963,8.644,1.0636,1.7805,9.5848,-1.2303,-0.0349,-0.798,-0.0032,-0.7761,-0.2172,77575,2021-05-16 14:47:10:179
0.2524,1.7963,8.644,1.0636,1.7805,9.5848,-1.2303,-0.0349,-0.798,-0.0032,-0.7761,-0.2172,77575,2021-05-16 14:47:10:179
0.2524,1.7963,8.644,1.0636,1.7805,9.5848,-1.2303,-0.0349,-0.798,-0.0032,-0.7761,-0.2172,77575,2021-05-16 14:47:10:179
0.2524,1.7963,8.644,1.0636,1.7805,9.5848,-1.2303,-0.0349,-0.798,-0.0032,-0.7761,-0.2172,77575,2021-05-16 14:47:10:179
0.2524,1.7963,8.644,1.0636,1.7805,9.5848,-1.2303,-0.0349,-0.798,-0.0032,-0.7761,-0.2172,77575,2021-05-16 14:47:10:179
0.2524,1.7963,8.644,1.0636,1.7805,9.5848,-1.2303,-0.0349,-0.798,-0.0032,-0.7761,-0.2172,77576,2021-05-16 14:47:10:180
0.2524,1.7963,8.644,1.0636,1.7805,9.5848,-1.2303,-0.0349,-0.798,-0.0032,-0.7761,-0.2172,77576,2021-05-16 14:47:10:180
0.2524,1.7963,8.644,1.0636,1.7805,9.5848,-1.2303,-0.0349,-0.798,-0.0032,-0.7761,-0.2172,77576,2021-05-16 14:47:10:180
0.2524,1.7963,8.644,1.0636,1.7805,9.5848,-1.2303,-0.0349,-0.798,-0.0032,-0.7761,-0.2172,77576,2021-05-16 14:47:10:180
0.2524,1.7963,8.644,1.0636,1.7805,9.5848,-1.2303,-0.0349,-0.798,-0.0032,-0.7761,-0.2172,77576,2021-05-16 14:47:10:180
0.2524,1.7963,8.644,1.0636,1.7805,9.5848,-1.2303,-0.0349,-0.798,-0.0032,-0.7761,-0.2172,77576,2021-05-16 14:47:10:180
0.2524,1.7963,8.644,1.0636,1.7805,9.5848,-1.2303,-0.0349,-0.798,-0.0032,-0.7761,-0.2172,77576,2021-05-16 14:47:10:180
0.2524,1.7963,8.644,1.0636,1.7805,9.5848,-1.2303,-0.0349,-0.798,-0.0032,-0.7761,-0.2172,77576,2021-05-16 14:47:10:180
0.2524,1.7963,8.644,1.0636,1.7805,9.5848,-1.2303,-0.0349,-0.798,-0.0032,-0.7761,-0.2172,77577,2021-05-16 14:47:10:181
0.2524,1.7963,8.644,1.0636,1.7805,9.5848,-1.2303,-0.0349,-0.798,-0.0032,-0.7761,-0.2172,77577,2021-05-16 14:47:10:181
0.2524,1.7963,8.644,1.0636,1.7805,9.5848,-1.2303,-0.0349,-0.798,-0.0032,-0.7761,-0.2172,77577,2021-05-16 14:47:10:181
0.2524,1.7963,8.644,1.0636,1.7805,9.5848,-1.2303,-0.0349,-0.798,-0.0032,-0.7761,-0.2172,77577,2021-05-16 14:47:10:181
0.2524,1.7963,8.644,1.0636,1.7805,9.5848,-1.2303,-0.0349,-0.798,-0.0032,-0.7761,-0.2172,77577,2021-05-16 14:47:10:181
0.2524,1.7963,8.644,1.0636,1.7805,9.5848,-1.2303,-0.0349,-0.798,-0.0032,-0.7761,-0.2172,77577,2021-05-16 14:47:10:181
