ACCELEROMETER X (m/s²),ACCELEROMETER Y (m/s²),ACCELEROMETER Z (m/s²),GRAVITY X (m/s²),GRAVITY Y (m/s²),GRAVITY Z (m/s²),LINEAR ACCELERATION X (m/s²),LINEAR ACCELERATION Y (m/s²),LINEAR ACCELERATION Z (m/s²),GYROSCOPE X (rad/s),GYROSCOPE Y (rad/s),GYROSCOPE Z (rad/s),Time since start in ms ,YYYY-MO-DD HH-MI-SS_SSS
6.649,9.323,-0.766,5.723,7.963,-0.081,-0.186,0.781,1.708,-0.963,-1.25,-0.409,22,2021-05-18 18:15:53:301
5.018,8.878,-0.804,6.558,7.28,-0.41,-1.328,1.402,-0.674,-0.166,-1.349,0.866,521,2021-05-18 18:15:53:800
7.204,5.811,-3.086,7.841,5.331,-2.503,-0.669,0.664,-0.313,0.856,-0.872,0.882,1022,2021-05-18 18:15:54:301
9.567,4.444,-6.024,8.223,3.252,-4.24,2.216,2.354,-0.06,-0.173,-0.217,0.448,1522,2021-05-18 18:15:54:801
10.29,5.035,-3.704,8.546,4.106,-2.504,1.744,0.929,-1.2,-0.357,-0.199,-0.026,2022,2021-05-18 18:15:55:301
6.749,6.263,-3.508,7.559,5.855,-2.181,-0.622,-0.022,0.034,-0.255,1.115,-0.114,2521,2021-05-18 18:15:55:800
4.616,2.983,5.895,5.636,3.163,7.376,-1.84,-1.036,-0.297,-4.029,5.085,0.895,3024,2021-05-18 18:15:56:303
-1.707,12.158,4.915,0.491,9.123,3.563,4.466,6.316,-9.834,1.668,1.013,1.895,3521,2021-05-18 18:15:56:800
2.914,7.089,-2.758,1.714,8.919,-3.7,1.922,-1.053,-0.157,2.257,0.124,-0.965,4022,2021-05-18 18:15:57:301
2.346,11.787,-3.227,1.575,9.564,-1.491,0.774,2.958,2.312,-1.715,1.345,0.123,4522,2021-05-18 18:15:57:801
9.996,15.718,3.275,3.291,9.087,-1.664,2.29,4.796,1.439,0.93,-0.189,1.2,5021,2021-05-18 18:15:58:300
5.428,7.317,1.915,4.902,7.881,3.167,0.772,2.928,0.362,-2.047,0.402,-0.62,5522,2021-05-18 18:15:58:801
15.376,10.029,6.888,4.249,7.068,5.307,11.127,2.961,1.581,1.77,-2.62,0.895,6022,2021-05-18 18:15:59:301
2.248,7.503,2.631,-3.186,9.275,-0.042,5.434,-1.771,2.673,1.057,1.134,-0.404,6522,2021-05-18 18:15:59:801
1.032,22.154,-5.452,2.992,8.403,-4.074,0.031,4.542,-3.827,1.173,0.969,1.564,7022,2021-05-18 18:16:00:301
2.018,9.694,0.239,0.725,9.203,-3.309,0.624,2.298,1.208,-0.658,-2.621,0.961,7522,2021-05-18 18:16:00:801
0.529,6.314,-7.774,2.087,8.047,-5.202,-2.335,-1.176,-2.129,1.076,0.513,2.157,8022,2021-05-18 18:16:01:301
7.293,-2.732,-6.953,7.633,2.479,-5.635,-0.46,-5.175,-1.389,-0.22,3.065,0.923,8522,2021-05-18 18:16:01:801
6.328,-6.321,-8.332,8.968,-3.237,-2.293,-6.973,-4.883,-3.142,-3.724,-3.048,-0.3,9022,2021-05-18 18:16:02:301
7.626,3.563,-10.376,3.563,1.043,-9.077,4.13,2.59,-1.266,0.169,-0.116,-1.151,9521,2021-05-18 18:16:02:800
9.031,1.894,-2.456,7.875,2.697,-5.184,-0.29,0.13,0.031,1.983,3.556,2.336,10073,2021-05-18 18:16:03:352
5.942,-0.723,-7.305,4.303,1.791,-8.628,3.513,-2.822,1.788,-1.135,-1.585,-0.539,10523,2021-05-18 18:16:03:802
1.199,3.919,-8.246,2.9,2.657,-8.983,-0.451,3.954,1.396,0.265,0.26,0.524,11021,2021-05-18 18:16:04:300
1.199,3.919,-8.246,2.9,2.657,-8.983,-0.451,3.954,1.396,0.265,0.26,0.524,11022,2021-05-18 18:16:04:301
1.199,3.919,-8.246,2.9,2.657,-8.983,-0.451,3.954,1.396,0.265,0.26,0.524,11022,2021-05-18 18:16:04:301
1.199,3.919,-8.246,2.9,2.657,-8.983,-0.451,3.954,1.396,0.265,0.26,0.524,11023,2021-05-18 18:16:04:302
1.199,3.919,-8.246,2.9,2.657,-8.983,-0.451,3.954,1.396,0.265,0.26,0.524,11023,2021-05-18 18:16:04:302
1.199,3.919,-8.246,2.9,2.657,-8.983,-0.451,3.954,1.396,0.265,0.26,0.524,11023,2021-05-18 18:16:04:302
1.199,3.919,-8.246,2.9,2.657,-8.983,-0.451,3.954,1.396,0.265,0.26,0.524,11023,2021-05-18 18:16:04:302
1.199,3.919,-8.246,2.9,2.657,-8.983,-0.451,3.954,1.396,0.265,0.26,0.524,11023,2021-05-18 18:16:04:302
1.199,3.919,-8.246,2.9,2.657,-8.983,-0.451,3.954,1.396,0.265,0.26,0.524,11023,2021-05-18 18:16:04:302
1.199,3.919,-8.246,2.9,2.657,-8.983,-0.451,3.954,1.396,0.265,0.26,0.524,11024,2021-05-18 18:16:04:303
1.199,3.919,-8.246,2.9,2.657,-8.983,-0.451,3.954,1.396,0.265,0.26,0.524,11024,2021-05-18 18:16:04:303
1.199,3.919,-8.246,2.9,2.657,-8.983,-0.451,3.954,1.396,0.265,0.26,0.524,11024,2021-05-18 18:16:04:303
1.199,3.919,-8.246,2.9,2.657,-8.983,-0.451,3.954,1.396,0.265,0.26,0.524,11024,2021-05-18 18:16:04:303
1.199,3.919,-8.246,2.9,2.657,-8.983,-0.451,3.954,1.396,0.265,0.26,0.524,11025,2021-05-18 18:16:04:304
1.199,3.919,-8.246,2.9,2.657,-8.983,-0.451,3.954,1.396,0.265,0.26,0.524,11025,2021-05-18 18:16:04:304
1.199,3.919,-8.246,2.9,2.657,-8.983,-0.451,3.954,1.396,0.265,0.26,0.524,11025,2021-05-18 18:16:04:304
1.199,3.919,-8.246,2.9,2.657,-8.983,-0.451,3.954,1.396,0.265,0.26,0.524,11026,2021-05-18 18:16:04:305
1.199,3.919,-8.246,2.9,2.657,-8.983,-0.451,3.954,1.396,0.265,0.26,0.524,11026,2021-05-18 18:16:04:305
1.199,3.919,-8.246,2.9,2.657,-8.983,-0.451,3.954,1.396,0.265,0.26,0.524,11026,2021-05-18 18:16:04:305
1.199,3.919,-8.246,2.9,2.657,-8.983,-0.451,3.954,1.396,0.265,0.26,0.524,11026,2021-05-18 18:16:04:305
1.199,3.919,-8.246,2.9,2.657,-8.983,-0.451,3.954,1.396,0.265,0.26,0.524,11026,2021-05-18 18:16:04:305
1.199,3.919,-8.246,2.9,2.657,-8.983,-0.451,3.954,1.396,0.265,0.26,0.524,11027,2021-05-18 18:16:04:306
1.199,3.919,-8.246,2.9,2.657,-8.983,-0.451,3.954,1.396,0.265,0.26,0.524,11027,2021-05-18 18:16:04:306
1.199,3.919,-8.246,2.9,2.657,-8.983,-0.451,3.954,1.396,0.265,0.26,0.524,11027,2021-05-18 18:16:04:306
1.199,3.919,-8.246,2.9,2.657,-8.983,-0.451,3.954,1.396,0.265,0.26,0.524,11027,2021-05-18 18:16:04:306
1.199,3.919,-8.246,2.9,2.657,-8.983,-0.451,3.954,1.396,0.265,0.26,0.524,11027,2021-05-18 18:16:04:306
1.199,3.919,-8.246,2.9,2.657,-8.983,-0.451,3.954,1.396,0.265,0.26,0.524,11028,2021-05-18 18:16:04:307
1.199,3.919,-8.246,2.9,2.657,-8.983,-0.451,3.954,1.396,0.265,0.26,0.524,11028,2021-05-18 18:16:04:307
1.199,3.919,-8.246,2.9,2.657,-8.983,-0.451,3.954,1.396,0.265,0.26,0.524,11028,2021-05-18 18:16:04:307
1.199,3.919,-8.246,2.9,2.657,-8.983,-0.451,3.954,1.396,0.265,0.26,0.524,11028,2021-05-18 18:16:04:307
1.199,3.919,-8.246,2.9,2.657,-8.983,-0.451,3.954,1.396,0.265,0.26,0.524,11028,2021-05-18 18:16:04:307
1.199,3.919,-8.246,2.9,2.657,-8.983,-0.451,3.954,1.396,0.265,0.26,0.524,11029,2021-05-18 18:16:04:308
1.199,3.919,-8.246,2.9,2.657,-8.983,-0.451,3.954,1.396,0.265,0.26,0.524,11029,2021-05-18 18:16:04:308
1.199,3.919,-8.246,2.9,2.657,-8.983,-0.451,3.954,1.396,0.265,0.26,0.524,11029,2021-05-18 18:16:04:308
1.199,3.919,-8.246,2.9,2.657,-8.983,-0.451,3.954,1.396,0.265,0.26,0.524,11029,2021-05-18 18:16:04:308
1.199,3.919,-8.246,2.9,2.657,-8.983,-0.451,3.954,1.396,0.265,0.26,0.524,11029,2021-05-18 18:16:04:308
1.199,3.919,-8.246,2.9,2.657,-8.983,-0.451,3.954,1.396,0.265,0.26,0.524,11030,2021-05-18 18:16:04:309
1.199,3.919,-8.246,2.9,2.657,-8.983,-0.451,3.954,1.396,0.265,0.26,0.524,11030,2021-05-18 18:16:04:309
2.222,6.771,-8.487,2.708,3.001,-8.935,-0.07,2.18,0.545,-0.47,-0.489,-0.225,11094,2021-05-18 18:16:04:373
0.158,7.013,-6.541,-0.771,6.637,-7.178,0.494,0.499,0.836,-0.472,-0.357,-1.594,11593,2021-05-18 18:16:04:872
-5.054,6.105,-6.179,-3.657,6.122,-6.732,-1.197,0.1,0.726,-0.218,0.949,1.496,12210,2021-05-18 18:16:05:489
-5.054,6.105,-6.179,-3.657,6.122,-6.732,-1.197,0.1,0.726,-0.218,0.949,1.496,12212,2021-05-18 18:16:05:491
-5.054,6.105,-6.179,-3.657,6.122,-6.732,-1.197,0.1,0.726,-0.218,0.949,1.496,12212,2021-05-18 18:16:05:491
-5.054,6.105,-7.235,-3.657,6.898,-6.732,-3.321,-1.926,-0.671,-0.205,1.233,2.569,12213,2021-05-18 18:16:05:492
-5.665,4.973,-7.235,-2.343,6.898,-6.565,-3.321,-1.926,-0.671,-0.205,1.233,2.569,12213,2021-05-18 18:16:05:492
-5.665,4.973,-7.235,-2.343,6.898,-6.565,-3.321,-1.926,-0.671,-0.205,1.233,2.569,12215,2021-05-18 18:16:05:494
-5.665,4.973,-7.235,-2.343,6.898,-6.565,-3.321,-1.926,-0.671,-0.205,1.233,2.569,12216,2021-05-18 18:16:05:495
-5.665,4.973,-7.235,-2.343,6.898,-6.565,-3.321,-1.926,-0.671,-0.205,1.233,2.569,12216,2021-05-18 18:16:05:495
-5.665,4.973,-7.235,-2.343,6.898,-6.565,-3.321,-1.926,-0.671,-0.205,1.233,2.569,12216,2021-05-18 18:16:05:495
-5.665,4.973,-7.235,-2.343,6.898,-6.565,-3.321,-1.926,-0.671,-0.205,1.233,2.569,12217,2021-05-18 18:16:05:496
-5.665,4.973,-7.235,-2.343,6.898,-6.565,-3.321,-1.926,-0.671,-0.205,1.233,2.569,12217,2021-05-18 18:16:05:496
-5.665,4.973,-7.235,-2.343,6.898,-6.565,-3.321,-1.926,-0.671,-0.205,1.233,2.569,12217,2021-05-18 18:16:05:496
-5.665,4.973,-7.235,-2.343,6.898,-6.565,-3.321,-1.926,-0.671,-0.205,1.233,2.569,12218,2021-05-18 18:16:05:497
-5.665,4.973,-7.235,-2.343,6.898,-6.565,-3.321,-1.926,-0.671,-0.205,1.233,2.569,12218,2021-05-18 18:16:05:497
-5.665,4.973,-7.235,-2.343,6.898,-6.565,-3.321,-1.926,-0.671,-0.205,1.233,2.569,12218,2021-05-18 18:16:05:497
-5.665,4.973,-7.235,-2.343,6.898,-6.565,-3.321,-1.926,-0.671,-0.205,1.233,2.569,12219,2021-05-18 18:16:05:498
-5.665,4.973,-7.235,-2.343,6.898,-6.565,-3.321,-1.926,-0.671,-0.205,1.233,2.569,12219,2021-05-18 18:16:05:498
-5.665,4.973,-7.235,-2.343,6.898,-6.565,-3.321,-1.926,-0.671,-0.205,1.233,2.569,12219,2021-05-18 18:16:05:498
-5.665,4.973,-7.235,-2.343,6.898,-6.565,-3.321,-1.926,-0.671,-0.205,1.233,2.569,12220,2021-05-18 18:16:05:499
-5.665,4.973,-7.235,-2.343,6.898,-6.565,-3.321,-1.926,-0.671,-0.205,1.233,2.569,12220,2021-05-18 18:16:05:499
-5.665,4.973,-7.235,-2.343,6.898,-6.565,-3.321,-1.926,-0.671,-0.205,1.233,2.569,12220,2021-05-18 18:16:05:499
-5.665,4.973,-7.235,-2.343,6.898,-6.565,-3.321,-1.926,-0.671,-0.205,1.233,2.569,12221,2021-05-18 18:16:05:500
-5.665,4.973,-7.235,-2.343,6.898,-6.565,-3.321,-1.926,-0.671,-0.205,1.233,2.569,12221,2021-05-18 18:16:05:500
-5.665,4.973,-7.235,-2.343,6.898,-6.565,-3.321,-1.926,-0.671,-0.205,1.233,2.569,12221,2021-05-18 18:16:05:500
-5.665,4.973,-7.235,-2.343,6.898,-6.565,-3.321,-1.926,-0.671,-0.205,1.233,2.569,12222,2021-05-18 18:16:05:501
-5.665,4.973,-7.235,-2.343,6.898,-6.565,-3.321,-1.926,-0.671,-0.205,1.233,2.569,12222,2021-05-18 18:16:05:501
-5.665,4.973,-7.235,-2.343,6.898,-6.565,-3.321,-1.926,-0.671,-0.205,1.233,2.569,12222,2021-05-18 18:16:05:501
-5.665,4.973,-7.235,-2.343,6.898,-6.565,-3.321,-1.926,-0.671,-0.205,1.233,2.569,12223,2021-05-18 18:16:05:502
-5.665,4.973,-7.235,-2.343,6.898,-6.565,-3.321,-1.926,-0.671,-0.205,1.233,2.569,12224,2021-05-18 18:16:05:503
-5.665,4.973,-7.235,-2.343,6.898,-6.565,-3.321,-1.926,-0.671,-0.205,1.233,2.569,12225,2021-05-18 18:16:05:504
-5.665,4.973,-7.235,-2.343,6.898,-6.565,-3.321,-1.926,-0.671,-0.205,1.233,2.569,12226,2021-05-18 18:16:05:505
-5.665,4.973,-7.235,-2.343,6.898,-6.565,-3.321,-1.926,-0.671,-0.205,1.233,2.569,12227,2021-05-18 18:16:05:506
-5.665,4.973,-7.235,-2.343,6.898,-6.565,-3.321,-1.926,-0.671,-0.205,1.233,2.569,12227,2021-05-18 18:16:05:506
-5.665,4.973,-7.235,-2.343,6.898,-6.565,-3.321,-1.926,-0.671,-0.205,1.233,2.569,12227,2021-05-18 18:16:05:506
-5.665,4.973,-7.235,-2.343,6.898,-6.565,-3.321,-1.926,-0.671,-0.205,1.233,2.569,12228,2021-05-18 18:16:05:507
-5.665,4.973,-7.235,-2.343,6.898,-6.565,-3.321,-1.926,-0.671,-0.205,1.233,2.569,12228,2021-05-18 18:16:05:507
-2.15,4.982,-5.528,1.052,8.461,-4.845,-3.202,-3.479,-0.683,-1.479,5.175,0.622,12481,2021-05-18 18:16:05:760
5.171,8.983,-9.419,4.641,7.397,-4.462,0.19,3.163,-2.343,-0.735,-3.159,0.501,12982,2021-05-18 18:16:06:261
-4.535,6.692,-5.298,-3.273,8.258,-4.156,-1.279,-0.85,-2.155,0.083,1.687,-0.193,13482,2021-05-18 18:16:06:761
2.258,9.357,-2.377,2.741,9.165,-2.16,-0.191,-0.536,0.19,0.222,-0.04,1.504,13982,2021-05-18 18:16:07:261
3.862,6.792,-2.569,-1.688,8.82,-3.94,5.55,-2.028,1.371,-0.678,-0.83,-1.654,14482,2021-05-18 18:16:07:761
-2.528,6.172,-4.685,-1.363,8.679,-4.358,-0.981,-1.721,-1.079,-1.332,3.759,0.271,14982,2021-05-18 18:16:08:261
5.562,8.701,-7.331,4.454,7.708,-4.114,-0.379,0.26,-2.53,-0.465,-3.168,0.306,15481,2021-05-18 18:16:08:760
-3.462,7.784,-4.195,-3.148,8.525,-3.686,0.275,-0.122,-0.313,-0.036,0.012,-0.642,16070,2021-05-18 18:16:09:349
-0.464,0.697,-3.417,1.367,9.198,-3.114,-15.093,5.801,2.072,-1.669,1.876,2.122,16482,2021-05-18 18:16:09:761
2.768,7.544,-5.863,0.417,7.991,-5.67,2.351,-0.447,-0.194,-0.977,-4.919,-0.809,16982,2021-05-18 18:16:10:261
-6.249,7.18,2.729,-7.606,5.655,2.518,-2.292,-0.661,2.618,-1.629,1.833,2.809,17482,2021-05-18 18:16:10:761
9.517,12.665,-3.031,7.837,5.666,1.628,2.576,9.927,-6.462,4.266,6.398,4.136,17982,2021-05-18 18:16:11:261
5.851,4.334,-4.671,4.899,7.257,-4.417,0.952,-2.923,-0.254,-2.062,-3.272,0.544,18482,2021-05-18 18:16:11:761
-3.074,8.164,-4.085,-2.263,8.976,-3.237,0.448,-1.36,1.642,-0.139,2.95,-2.617,18982,2021-05-18 18:16:12:261
6.098,10.518,-2.643,5.702,7.813,-1.617,-0.553,0.66,-2.52,-0.689,-0.247,1.425,19482,2021-05-18 18:16:12:761
1.535,8.124,-5.533,2.416,8.535,-4.182,-0.881,-0.411,-1.351,-1.206,-3.343,-0.142,19982,2021-05-18 18:16:13:261
0.622,9.957,-6.649,0.973,9.416,-2.561,-0.351,0.541,-4.087,-1.556,6.037,2.545,20482,2021-05-18 18:16:13:761
3.103,3.773,0.036,3.464,8.826,2.507,-1.556,-6.458,-4.649,-1.205,2.235,-1.863,20981,2021-05-18 18:16:14:260
3.127,7.221,5.004,4.537,8.064,3.25,-1.549,2.933,0.886,-0.918,1.094,-0.145,21482,2021-05-18 18:16:14:761
-6.115,7.108,6.682,0.643,7.83,5.869,-6.071,-0.241,0.19,-2.134,0.084,-2.084,21982,2021-05-18 18:16:15:261
-2.116,7.518,1.563,-2.263,9.072,2.958,0.281,-1.908,-1.383,0.806,0.679,-1.217,22482,2021-05-18 18:16:15:761
0.345,9.404,3.366,1.082,9.331,2.816,-0.299,0.013,-0.146,1.42,-0.47,0.894,22982,2021-05-18 18:16:16:261
3.177,10.621,0.567,3.79,8.979,1.088,-1.624,-0.126,-0.735,0.059,0.18,0.63,23481,2021-05-18 18:16:16:760
1.188,9.876,0.979,2.086,9.411,1.806,-0.209,-1.611,-1.996,-0.569,2.512,0.633,23981,2021-05-18 18:16:17:260
2.653,7.958,1.006,3.376,9.058,1.654,-0.643,1.481,-0.794,0.183,1.108,1.217,24571,2021-05-18 18:16:17:850
2.653,7.958,1.006,3.376,9.058,1.654,-0.643,1.481,-0.794,0.183,1.108,1.217,24572,2021-05-18 18:16:17:851
2.653,7.958,1.006,3.376,9.058,1.654,-0.643,1.481,-0.794,0.183,1.108,1.217,24572,2021-05-18 18:16:17:851
4.171,11.729,0.785,4.448,8.521,1.943,-0.278,3.208,-1.158,0.246,1.106,1.75,24573,2021-05-18 18:16:17:852
4.171,11.729,0.785,4.448,8.521,1.943,-0.278,3.208,-1.158,0.246,1.106,1.75,24574,2021-05-18 18:16:17:853
4.171,11.729,0.785,4.448,8.521,1.943,-0.278,3.208,-1.158,0.246,1.106,1.75,24574,2021-05-18 18:16:17:853
4.171,11.729,0.785,4.448,8.521,1.943,-0.278,3.208,-1.158,0.246,1.106,1.75,24583,2021-05-18 18:16:17:862
4.171,11.729,0.785,4.448,8.521,1.943,-0.278,3.208,-1.158,0.246,1.106,1.75,24584,2021-05-18 18:16:17:863
4.171,11.729,0.785,4.448,8.521,1.943,-0.278,3.208,-1.158,0.246,1.106,1.75,24584,2021-05-18 18:16:17:863
4.171,11.729,0.785,4.448,8.521,1.943,-0.278,3.208,-1.158,0.246,1.106,1.75,24585,2021-05-18 18:16:17:864
4.171,11.729,0.785,4.448,8.521,1.943,-0.278,3.208,-1.158,0.246,1.106,1.75,24586,2021-05-18 18:16:17:865
4.171,11.729,0.785,4.448,8.521,1.943,-0.278,3.208,-1.158,0.246,1.106,1.75,24586,2021-05-18 18:16:17:865
1.848,4.017,10.336,4.074,7.635,4.613,-3.154,-3.313,5.083,0.178,-0.34,0.183,24840,2021-05-18 18:16:18:119
2.334,5.157,7.752,2.511,7.405,5.919,-0.339,-0.992,2.014,0.126,0.571,0.14,25501,2021-05-18 18:16:18:780
2.334,5.157,7.752,2.511,7.405,5.919,-0.339,-0.992,2.014,0.126,0.571,0.14,25502,2021-05-18 18:16:18:781
2.334,5.157,7.752,2.511,7.405,5.919,-0.339,-0.992,2.014,0.126,0.571,0.14,25502,2021-05-18 18:16:18:781
2.334,5.157,7.752,2.511,7.405,5.919,-0.339,-0.992,2.014,0.126,0.571,0.14,25503,2021-05-18 18:16:18:782
2.334,5.157,7.752,2.511,7.405,5.919,-0.339,-0.992,2.014,0.126,0.571,0.14,25504,2021-05-18 18:16:18:783
2.334,5.157,7.752,2.511,7.405,5.919,-0.339,-0.992,2.014,0.126,0.571,0.14,25504,2021-05-18 18:16:18:783
2.334,5.157,7.752,2.511,7.405,5.919,-0.339,1.708,-3.501,-0.134,-0.466,-0.054,25504,2021-05-18 18:16:18:783
0.034,8.961,2.703,2.249,7.254,6.204,-2.216,1.708,-3.501,-0.134,-0.466,-0.054,25505,2021-05-18 18:16:18:784
0.034,8.961,2.703,2.249,7.254,6.204,-2.216,1.708,-3.501,-0.134,-0.466,-0.054,25506,2021-05-18 18:16:18:785
0.034,8.961,2.703,2.249,7.254,6.204,-2.216,1.708,-3.501,-0.134,-0.466,-0.054,25506,2021-05-18 18:16:18:785
0.034,8.961,2.703,2.249,7.254,6.204,-2.216,1.708,-3.501,-0.134,-0.466,-0.054,25507,2021-05-18 18:16:18:786
0.034,8.961,2.703,2.249,7.254,6.204,-2.216,1.708,-3.501,-0.134,-0.466,-0.054,25507,2021-05-18 18:16:18:786
0.034,8.961,2.703,2.249,7.254,6.204,-2.216,1.708,-3.501,-0.134,-0.466,-0.054,25507,2021-05-18 18:16:18:786
0.034,8.961,2.703,2.249,7.254,6.204,-2.216,1.708,-3.501,-0.134,-0.466,-0.054,25507,2021-05-18 18:16:18:786
0.034,8.961,2.703,2.249,7.254,6.204,-2.216,1.708,-3.501,-0.134,-0.466,-0.054,25508,2021-05-18 18:16:18:787
0.034,8.961,2.703,2.249,7.254,6.204,-2.216,1.708,-3.501,-0.134,-0.466,-0.054,25508,2021-05-18 18:16:18:787
0.034,8.961,2.703,2.249,7.254,6.204,-2.216,1.708,-3.501,-0.134,-0.466,-0.054,25508,2021-05-18 18:16:18:787
0.034,8.961,2.703,2.249,7.254,6.204,-2.216,1.708,-3.501,-0.134,-0.466,-0.054,25508,2021-05-18 18:16:18:787
0.034,8.961,2.703,2.249,7.254,6.204,-2.216,1.708,-3.501,-0.134,-0.466,-0.054,25509,2021-05-18 18:16:18:788
0.034,8.961,2.703,2.249,7.254,6.204,-2.216,1.708,-3.501,-0.134,-0.466,-0.054,25509,2021-05-18 18:16:18:788
0.034,8.961,2.703,2.249,7.254,6.204,-2.216,1.708,-3.501,-0.134,-0.466,-0.054,25509,2021-05-18 18:16:18:788
-0.086,8.001,3.797,1.51,7.944,5.548,-1.596,0.057,-1.751,0.285,1.285,0.313,25781,2021-05-18 18:16:19:060
-1.36,7.927,3.203,0.563,8.664,4.559,-1.923,-0.737,-1.356,-0.217,0.073,-0.021,26390,2021-05-18 18:16:19:669
-1.36,7.927,3.203,0.563,8.664,4.559,-1.923,-0.737,-1.356,-0.217,0.073,-0.021,26392,2021-05-18 18:16:19:671
-1.36,7.927,3.203,0.563,8.664,4.559,-1.923,-0.737,-1.356,-0.217,0.073,-0.021,26393,2021-05-18 18:16:19:672
-1.12,8.147,3.455,0.182,8.831,4.26,-1.303,-0.684,-0.805,-0.227,0.142,-0.024,26394,2021-05-18 18:16:19:673
-1.12,8.147,3.455,0.182,8.831,4.26,-1.303,-0.684,-0.805,-0.227,0.142,-0.024,26394,2021-05-18 18:16:19:673
-1.12,8.147,3.455,0.182,8.831,4.26,-1.303,-0.684,-0.805,-0.227,0.142,-0.024,26395,2021-05-18 18:16:19:674
-1.12,8.147,3.455,0.182,8.831,4.26,-1.303,-0.684,-0.805,-0.227,0.142,-0.024,26395,2021-05-18 18:16:19:674
-1.12,8.147,3.455,0.182,8.831,4.26,-1.303,-0.684,-0.805,-0.227,0.142,-0.024,26396,2021-05-18 18:16:19:675
-1.12,8.147,3.455,0.182,8.831,4.26,-1.303,-0.684,-0.805,-0.227,0.142,-0.024,26397,2021-05-18 18:16:19:676
-1.12,8.147,3.455,0.182,8.831,4.26,-1.303,-0.684,-0.805,-0.227,0.142,-0.024,26398,2021-05-18 18:16:19:677
-1.12,8.147,3.455,0.182,8.831,4.26,-1.303,-0.684,-0.805,-0.227,0.142,-0.024,26398,2021-05-18 18:16:19:677
0.376,9.864,3.44,0.203,8.529,4.836,0.722,1.342,-1.264,0.475,0.738,0.511,26672,2021-05-18 18:16:19:951
-0.251,8.985,0.553,0.801,9.742,0.782,-1.181,-0.775,-1.444,-0.334,-0.268,1.066,27269,2021-05-18 18:16:20:548
6.512,10.35,-0.613,1.478,9.65,0.925,5.035,0.7,-1.538,-0.632,0.968,0.303,27275,2021-05-18 18:16:20:554
6.512,10.35,-0.613,1.478,9.65,0.925,5.035,0.7,-1.538,-0.632,0.968,0.303,27275,2021-05-18 18:16:20:554
6.512,10.35,-0.613,1.478,9.65,0.925,5.035,0.7,-1.538,-0.632,0.968,0.303,27276,2021-05-18 18:16:20:555
6.512,10.35,-0.613,1.478,9.65,0.925,5.035,0.7,-1.538,-0.632,0.968,0.303,27276,2021-05-18 18:16:20:555
6.512,10.35,-0.613,1.478,9.65,0.925,5.035,0.7,-1.538,-0.632,0.968,0.303,27277,2021-05-18 18:16:20:556
6.512,10.35,-0.613,1.478,9.65,0.925,5.035,0.7,-1.538,-0.632,0.968,0.303,27278,2021-05-18 18:16:20:557
6.512,10.35,-0.613,1.478,9.65,0.925,5.035,0.7,-1.538,-0.632,0.968,0.303,27279,2021-05-18 18:16:20:558
6.512,10.35,-0.613,1.478,9.65,0.925,5.035,0.7,-1.538,-0.632,0.968,0.303,27279,2021-05-18 18:16:20:558
6.512,10.35,-0.613,1.478,9.65,0.925,5.035,0.7,-1.538,-0.632,0.968,0.303,27280,2021-05-18 18:16:20:559
6.512,10.35,-0.613,1.478,9.65,0.925,5.035,0.7,-1.538,-0.632,0.968,0.303,27280,2021-05-18 18:16:20:559
6.512,10.35,-0.613,1.478,9.65,0.925,5.035,0.7,-1.538,-0.632,0.968,0.303,27280,2021-05-18 18:16:20:559
6.512,10.35,-0.613,1.478,9.65,0.925,5.035,0.7,-1.538,-0.632,0.968,0.303,27281,2021-05-18 18:16:20:560
6.512,10.35,-0.613,1.478,9.65,0.925,5.035,0.7,-1.538,-0.632,0.968,0.303,27281,2021-05-18 18:16:20:560
6.512,10.35,-0.613,1.478,9.65,0.925,5.035,0.7,-1.538,-0.632,0.968,0.303,27281,2021-05-18 18:16:20:560
6.512,10.35,-0.613,1.478,9.65,0.925,5.035,0.7,-1.538,-0.632,0.968,0.303,27281,2021-05-18 18:16:20:560
6.512,10.35,-0.613,1.478,9.65,0.925,5.035,0.7,-1.538,-0.632,0.968,0.303,27282,2021-05-18 18:16:20:561
6.512,10.35,-0.613,1.478,9.65,0.925,5.035,0.7,-1.538,-0.632,0.968,0.303,27282,2021-05-18 18:16:20:561
6.512,10.35,-0.613,1.478,9.65,0.925,5.035,0.7,-1.538,-0.632,0.968,0.303,27282,2021-05-18 18:16:20:561
6.512,10.35,-0.613,1.478,9.65,0.925,5.035,0.7,-1.538,-0.632,0.968,0.303,27283,2021-05-18 18:16:20:562
6.512,10.35,-0.613,1.478,9.65,0.925,5.035,0.7,-1.538,-0.632,0.968,0.303,27284,2021-05-18 18:16:20:563
6.512,10.35,-0.613,1.478,9.65,0.925,5.035,0.7,-1.538,-0.632,0.968,0.303,27284,2021-05-18 18:16:20:563
6.512,10.35,-0.613,1.478,9.65,0.925,5.035,0.7,-1.538,-0.632,0.968,0.303,27285,2021-05-18 18:16:20:564
6.512,10.35,-0.613,1.478,9.65,0.925,5.035,0.7,-1.538,-0.632,0.968,0.303,27285,2021-05-18 18:16:20:564
6.512,10.35,-0.613,1.478,9.65,0.925,5.035,0.7,-1.538,-0.632,0.968,0.303,27286,2021-05-18 18:16:20:565
6.512,10.35,-0.613,1.478,9.65,0.925,5.035,0.7,-1.538,-0.632,0.968,0.303,27286,2021-05-18 18:16:20:565
6.512,10.35,-0.613,1.478,9.65,0.925,5.035,0.7,-1.538,-0.632,0.968,0.303,27287,2021-05-18 18:16:20:566
6.512,10.35,-0.613,1.478,9.65,0.925,5.035,0.7,-1.538,-0.632,0.968,0.303,27287,2021-05-18 18:16:20:566
6.512,10.35,-0.613,1.478,9.65,0.925,5.035,0.7,-1.538,-0.632,0.968,0.303,27287,2021-05-18 18:16:20:566
6.512,10.35,-0.613,1.478,9.65,0.925,5.035,0.7,-1.538,-0.632,0.968,0.303,27287,2021-05-18 18:16:20:566
6.512,10.35,-0.613,1.478,9.65,0.925,5.035,0.7,-1.538,-0.632,0.968,0.303,27288,2021-05-18 18:16:20:567
6.512,10.35,-0.613,1.478,9.65,0.925,5.035,0.7,-1.538,-0.632,0.968,0.303,27290,2021-05-18 18:16:20:569
6.512,10.35,-0.613,1.478,9.65,0.925,5.035,0.7,-1.538,-0.632,0.968,0.303,27291,2021-05-18 18:16:20:570
7.652,9.694,1.595,3.178,9.059,2.003,4.457,0.672,-0.534,-0.328,1.238,0.395,27550,2021-05-18 18:16:20:829
0.567,6.644,4.125,3.449,7.59,5.163,-0.802,-1.334,-1.479,-0.274,1.169,-0.363,28050,2021-05-18 18:16:21:329
0.287,4.726,3.311,2.906,7.871,5.077,-1.365,-0.299,-2.222,-0.131,-1.203,-1.016,28551,2021-05-18 18:16:21:830
2.363,8.581,6.651,2.258,7.657,5.696,3.269,0.998,0.671,0.23,0.267,-0.037,29050,2021-05-18 18:16:22:329
1.492,7.432,8.298,2.004,5.626,7.778,1.202,2.394,0.6,-0.445,3.008,0.553,29550,2021-05-18 18:16:22:829
-3.919,5.526,5.179,-3.602,6.2,6.69,0.155,-0.622,-1.285,-0.26,2.274,0.159,30051,2021-05-18 18:16:23:330
-3.206,5.545,6.503,-3.721,5.327,7.345,-0.647,-0.067,-0.739,-0.002,-0.112,0.375,30551,2021-05-18 18:16:23:830
-3.464,6.649,5.253,-2.936,6.465,6.764,-0.165,-0.324,-0.123,-0.283,0.434,0.762,31051,2021-05-18 18:16:24:330
-2.787,3.519,5.6,-2.864,6.868,6.388,-0.103,-3.439,-0.767,-0.022,-0.02,0.177,31550,2021-05-18 18:16:24:829
-3.713,7.659,5.504,-2.908,7.058,6.157,-0.67,-1.531,-0.079,0.782,-0.266,0.018,32050,2021-05-18 18:16:25:329
-3.314,5.346,8.653,-0.248,6.16,7.626,1.662,1.191,1.138,-0.498,-1.21,0.297,32550,2021-05-18 18:16:25:829
0.419,7.415,8.909,0.127,6.946,6.921,0.317,1.574,1.586,0.353,-0.107,-0.376,33050,2021-05-18 18:16:26:329
1.458,5.461,6.05,0.385,6.552,7.286,-0.336,-2.963,-1.586,-0.729,0.414,0.885,33550,2021-05-18 18:16:26:829
0.402,4.381,7.841,0.852,4.013,8.907,-0.478,-0.318,-1.029,-1.001,0.006,-0.209,34051,2021-05-18 18:16:27:330
-0.357,4.853,10.197,0.182,2.454,9.493,-0.795,2.423,1.177,0.002,0.272,-0.05,34551,2021-05-18 18:16:27:830
-0.328,1.602,9.28,-1.025,2.169,9.509,0.48,-2.002,0.126,-0.045,-0.933,-0.002,35051,2021-05-18 18:16:28:330
-1.815,2.229,9.261,-0.338,1.931,9.609,-1.477,0.298,-0.348,-0.418,-0.445,-0.119,35550,2021-05-18 18:16:28:829
-1.061,0.357,9.507,-0.88,1.75,9.609,0.288,-0.448,0.229,-0.383,0.26,0.465,36050,2021-05-18 18:16:29:329
-0.177,3.151,9.72,-1.165,1.726,9.583,1.247,1.386,0.18,-0.238,0.52,-0.6,36550,2021-05-18 18:16:29:829
0.534,3.771,9.287,-0.953,4.821,8.487,-0.204,2.428,0.119,0.581,0.282,-0.006,37050,2021-05-18 18:16:30:329
-1.118,6.124,6.146,-1.359,6.994,6.739,-0.951,-0.514,-1.465,0.264,-0.357,0.128,37551,2021-05-18 18:16:30:830
-0.929,7.214,6.314,-0.909,6.546,7.245,0.172,0.581,-1.151,-0.313,-0.36,0.073,38050,2021-05-18 18:16:31:329
-1.767,8.121,6.146,-1.442,7.302,6.385,-0.352,-0.263,-0.887,-0.048,0.555,0.731,38551,2021-05-18 18:16:31:830
-0.223,9.215,5.897,-0.698,7.486,6.297,-0.33,0.212,-0.148,0.098,-0.518,-0.02,39052,2021-05-18 18:16:32:331
1.192,8.478,4.774,0.857,7.951,5.677,0.336,0.527,-0.903,-0.005,0.649,0.218,39550,2021-05-18 18:16:32:829
1.192,8.478,4.774,0.857,7.951,5.677,0.336,0.527,-0.903,-0.005,0.649,0.218,39551,2021-05-18 18:16:32:830
1.192,8.478,4.774,0.857,7.951,5.677,0.336,0.527,-0.903,-0.005,0.649,0.218,39551,2021-05-18 18:16:32:830
1.192,8.478,4.774,0.857,7.951,5.677,0.336,0.527,-0.903,-0.005,0.649,0.218,39552,2021-05-18 18:16:32:831
1.192,8.478,4.774,0.857,7.951,5.677,0.336,0.527,-0.903,-0.005,0.649,0.218,39552,2021-05-18 18:16:32:831
1.192,8.478,4.774,0.857,7.951,5.677,0.336,0.527,-0.903,-0.005,0.649,0.218,39553,2021-05-18 18:16:32:832
1.192,8.478,4.774,0.857,7.951,5.677,0.336,0.527,-0.903,-0.005,0.649,0.218,39553,2021-05-18 18:16:32:832
1.192,8.478,4.774,0.857,7.951,5.677,0.336,0.527,-0.903,-0.005,0.649,0.218,39553,2021-05-18 18:16:32:832
1.192,8.478,4.774,0.857,7.951,5.677,0.336,0.527,-0.903,-0.005,0.649,0.218,39554,2021-05-18 18:16:32:833
1.192,8.478,4.774,0.857,7.951,5.677,0.336,0.527,-0.903,-0.005,0.649,0.218,39554,2021-05-18 18:16:32:833
1.192,8.478,4.774,0.857,7.951,5.677,0.336,0.527,-0.903,-0.005,0.649,0.218,39554,2021-05-18 18:16:32:833
1.192,8.478,4.774,0.857,7.951,5.677,0.336,0.527,-0.903,-0.005,0.649,0.218,39554,2021-05-18 18:16:32:833
1.192,8.478,4.774,0.857,7.951,5.677,0.336,0.527,-0.903,-0.005,0.649,0.218,39555,2021-05-18 18:16:32:834
1.192,8.478,4.774,0.857,7.951,5.677,0.336,0.527,-0.903,-0.005,0.649,0.218,39555,2021-05-18 18:16:32:834
1.192,8.478,4.774,0.857,7.951,5.677,0.336,0.527,-0.903,-0.005,0.649,0.218,39555,2021-05-18 18:16:32:834
1.192,8.478,4.774,0.857,7.951,5.677,0.336,0.527,-0.903,-0.005,0.649,0.218,39556,2021-05-18 18:16:32:835
1.192,8.478,4.774,0.857,7.951,5.677,0.336,0.527,-0.903,-0.005,0.649,0.218,39556,2021-05-18 18:16:32:835
1.192,8.478,4.774,0.857,7.951,5.677,0.336,0.527,-0.903,-0.005,0.649,0.218,39556,2021-05-18 18:16:32:835
-1.302,6.194,4.901,0.211,7.729,6.032,-1.845,-2.465,-0.642,-0.628,0.441,-0.51,39812,2021-05-18 18:16:33:091
-2.294,6.929,6.376,-2.19,6.555,6.958,-3.188,-1.129,-0.964,0.385,0.005,0.033,40420,2021-05-18 18:16:33:699
-2.294,6.929,6.376,-2.19,6.555,6.958,-3.188,-1.129,-0.964,0.385,0.005,0.033,40421,2021-05-18 18:16:33:700
-2.294,6.929,6.376,-2.19,6.555,6.958,-3.188,-1.129,-0.964,0.385,0.005,0.033,40423,2021-05-18 18:16:33:702
-2.294,6.929,6.376,-2.19,6.555,6.958,-3.188,-1.129,-0.964,0.385,0.005,0.033,40423,2021-05-18 18:16:33:702
-2.294,6.929,6.376,-2.19,6.555,6.958,-3.188,-1.129,-0.964,0.385,0.005,0.033,40425,2021-05-18 18:16:33:704
-2.294,6.929,6.376,-2.19,6.555,6.958,-3.188,-1.129,-0.964,0.385,0.005,0.033,40426,2021-05-18 18:16:33:705
-2.294,6.929,6.376,-2.19,6.555,6.958,-3.188,-1.129,-0.964,0.385,0.005,0.033,40427,2021-05-18 18:16:33:706
-2.294,6.929,6.376,-2.19,6.555,6.958,-3.188,-1.129,-0.964,0.385,0.005,0.033,40427,2021-05-18 18:16:33:706
-2.294,6.929,6.376,-2.19,6.555,6.958,-3.188,-1.129,-0.964,0.385,0.005,0.033,40429,2021-05-18 18:16:33:708
-2.294,6.929,6.376,-2.19,6.555,6.958,-3.188,-1.129,-0.964,0.385,0.005,0.033,40430,2021-05-18 18:16:33:709
-2.294,6.929,6.376,-2.19,6.555,6.958,-3.188,-1.129,-0.964,0.385,0.005,0.033,40430,2021-05-18 18:16:33:709
1.865,10.523,-1.963,0.512,8.521,4.827,1.039,1.899,-6.702,-0.531,-0.481,-0.621,40692,2021-05-18 18:16:33:971
2.557,10.051,-2.693,2.927,9.358,-0.154,-3.156,3.47,-2.258,1.784,-0.98,2.351,41191,2021-05-18 18:16:34:470
3.381,8.638,-0.441,4.149,8.876,0.402,0.433,-1.058,-0.657,-0.326,0.161,0.869,41799,2021-05-18 18:16:35:078
5.358,7.374,0.067,4.83,8.522,0.467,0.528,-1.148,-0.4,-0.266,0.178,0.65,41800,2021-05-18 18:16:35:079
5.358,7.374,0.067,4.83,8.522,0.467,0.528,-1.148,-0.4,-0.266,0.178,0.65,41805,2021-05-18 18:16:35:084
5.358,7.374,0.067,4.83,8.522,0.467,0.528,-1.148,-0.4,-0.266,0.178,0.65,41806,2021-05-18 18:16:35:085
5.358,7.374,0.067,4.83,8.522,0.467,0.528,-1.148,-0.4,-0.266,0.178,0.65,41806,2021-05-18 18:16:35:085
5.358,7.374,0.067,4.83,8.522,0.467,0.528,-1.148,-0.4,-0.266,0.178,0.65,41807,2021-05-18 18:16:35:086
5.358,7.374,0.067,4.83,8.522,0.467,0.528,-1.148,-0.4,-0.266,0.178,0.65,41807,2021-05-18 18:16:35:086
5.358,7.374,0.067,4.83,8.522,0.467,0.528,-1.148,-0.4,-0.266,0.178,0.65,41808,2021-05-18 18:16:35:087
5.358,7.374,0.067,4.83,8.522,0.467,0.528,-1.148,-0.4,-0.266,0.178,0.65,41808,2021-05-18 18:16:35:087
5.358,7.374,0.067,4.83,8.522,0.467,0.528,-1.148,-0.4,-0.266,0.178,0.65,41809,2021-05-18 18:16:35:088
5.358,7.374,0.067,4.83,8.522,0.467,0.528,-1.148,-0.4,-0.266,0.178,0.65,41809,2021-05-18 18:16:35:088
5.358,7.374,0.067,4.83,8.522,0.467,0.528,-1.148,-0.4,-0.266,0.178,0.65,41809,2021-05-18 18:16:35:088
5.358,7.374,0.067,4.83,8.522,0.467,0.528,-1.148,-0.4,-0.266,0.178,0.65,41810,2021-05-18 18:16:35:089
5.358,7.374,0.067,4.83,8.522,0.467,0.528,-1.148,-0.4,-0.266,0.178,0.65,41811,2021-05-18 18:16:35:090
5.358,7.374,0.067,4.83,8.522,0.467,0.528,-1.148,-0.4,-0.266,0.178,0.65,41811,2021-05-18 18:16:35:090
5.358,7.374,0.067,4.83,8.522,0.467,0.528,-1.148,-0.4,-0.266,0.178,0.65,41812,2021-05-18 18:16:35:091
5.358,7.374,0.067,4.83,8.522,0.467,0.528,-1.148,-0.4,-0.266,0.178,0.65,41812,2021-05-18 18:16:35:091
5.358,7.374,0.067,4.83,8.522,0.467,0.528,-1.148,-0.4,-0.266,0.178,0.65,41812,2021-05-18 18:16:35:091
5.358,7.374,0.067,4.83,8.522,0.467,0.528,-1.148,-0.4,-0.266,0.178,0.65,41813,2021-05-18 18:16:35:092
5.358,7.374,0.067,4.83,8.522,0.467,0.528,-1.148,-0.4,-0.266,0.178,0.65,41813,2021-05-18 18:16:35:092
5.358,7.374,0.067,4.83,8.522,0.467,0.528,-1.148,-0.4,-0.266,0.178,0.65,41813,2021-05-18 18:16:35:092
5.358,7.374,0.067,4.83,8.522,0.467,0.528,-1.148,-0.4,-0.266,0.178,0.65,41814,2021-05-18 18:16:35:093
5.358,7.374,0.067,4.83,8.522,0.467,0.528,-1.148,-0.4,-0.266,0.178,0.65,41814,2021-05-18 18:16:35:093
5.358,7.374,0.067,4.83,8.522,0.467,0.528,-1.148,-0.4,-0.266,0.178,0.65,41814,2021-05-18 18:16:35:093
5.358,7.374,0.067,4.83,8.522,0.467,0.528,-1.148,-0.4,-0.266,0.178,0.65,41814,2021-05-18 18:16:35:093
5.358,7.374,0.067,4.83,8.522,0.467,0.528,-1.148,-0.4,-0.266,0.178,0.65,41815,2021-05-18 18:16:35:094
5.358,7.374,0.067,4.83,8.522,0.467,0.528,-1.148,-0.4,-0.266,0.178,0.65,41815,2021-05-18 18:16:35:094
5.358,7.374,0.067,4.83,8.522,0.467,0.528,-1.148,-0.4,-0.266,0.178,0.65,41816,2021-05-18 18:16:35:095
5.358,7.374,0.067,4.83,8.522,0.467,0.528,-1.148,-0.4,-0.266,0.178,0.65,41816,2021-05-18 18:16:35:095
5.358,7.374,0.067,4.83,8.522,0.467,0.528,-1.148,-0.4,-0.266,0.178,0.65,41816,2021-05-18 18:16:35:095
5.358,7.374,0.067,4.83,8.522,0.467,0.528,-1.148,-0.4,-0.266,0.178,0.65,41817,2021-05-18 18:16:35:096
5.358,7.374,0.067,4.83,8.522,0.467,0.528,-1.148,-0.4,-0.266,0.178,0.65,41817,2021-05-18 18:16:35:096
-0.034,10.81,0.108,3.31,9.116,1.454,-3.642,1.013,-1.673,-0.493,0.45,0.139,42081,2021-05-18 18:16:35:360
0.74,10.53,-0.184,1.762,9.604,0.91,-1.963,-0.371,-0.378,0.256,0.026,-0.038,42581,2021-05-18 18:16:35:860
-0.503,8.035,-2.677,0.896,9.707,-1.071,-1.399,-1.672,-1.605,0.405,0.502,-0.005,43081,2021-05-18 18:16:36:360
0.263,11.399,-1.58,2.191,9.498,-1.076,-1.928,1.901,-0.504,-0.151,-0.194,0.508,43592,2021-05-18 18:16:36:871
0.263,11.399,-1.58,2.191,9.498,-1.076,-1.928,1.901,-0.504,-0.151,-0.194,0.508,43593,2021-05-18 18:16:36:872
0.263,11.399,-1.58,2.191,9.498,-1.076,-1.928,1.901,-0.504,-0.151,-0.194,0.508,43593,2021-05-18 18:16:36:872
0.263,11.399,-1.58,2.191,9.498,-1.076,-1.928,1.901,-0.504,-0.151,-0.194,0.508,43594,2021-05-18 18:16:36:873
0.263,11.399,-1.58,2.191,9.498,-1.076,-1.928,1.901,-0.504,-0.151,-0.194,0.508,43595,2021-05-18 18:16:36:874
0.263,11.399,-1.58,2.191,9.498,-1.076,-1.928,1.901,-0.504,-0.151,-0.194,0.508,43597,2021-05-18 18:16:36:876
0.263,11.399,-1.58,2.191,9.498,-1.076,-1.928,1.901,-0.504,-0.151,-0.194,0.508,43598,2021-05-18 18:16:36:877
0.263,11.399,-1.58,2.191,9.498,-1.076,-1.928,1.901,-0.504,-0.151,-0.194,0.508,43601,2021-05-18 18:16:36:880
0.263,11.399,-1.58,2.191,9.498,-1.076,-1.928,1.901,-0.504,-0.151,-0.194,0.508,43602,2021-05-18 18:16:36:881
1.774,8.159,-0.321,3.186,9.112,-1.731,-0.248,0.068,0.935,0.31,-0.185,0.243,43871,2021-05-18 18:16:37:150
2.634,10.408,-3.316,3.037,9.111,-1.985,-1.309,0.701,-1.139,0.297,0.029,-0.271,44470,2021-05-18 18:16:37:749
4.436,10.963,-1.726,3.139,9.215,-1.18,1.297,1.748,-0.546,-0.792,0.651,0.276,44472,2021-05-18 18:16:37:751
4.436,10.963,-1.726,3.139,9.215,-1.18,1.297,1.748,-0.546,-0.792,0.651,0.276,44473,2021-05-18 18:16:37:752
4.436,10.963,-1.726,3.139,9.215,-1.18,1.297,1.748,-0.546,-0.792,0.651,0.276,44474,2021-05-18 18:16:37:753
4.436,10.963,-1.726,3.139,9.215,-1.18,1.297,1.748,-0.546,-0.792,0.651,0.276,44474,2021-05-18 18:16:37:753
4.436,10.963,-1.726,3.139,9.215,-1.18,1.297,1.748,-0.546,-0.792,0.651,0.276,44475,2021-05-18 18:16:37:754
4.436,10.963,-1.726,3.139,9.215,-1.18,1.297,1.748,-0.546,-0.792,0.651,0.276,44475,2021-05-18 18:16:37:754
4.436,10.963,-1.726,3.139,9.215,-1.18,1.297,1.748,-0.546,-0.792,0.651,0.276,44476,2021-05-18 18:16:37:755
4.436,10.963,-1.726,3.139,9.215,-1.18,1.297,1.748,-0.546,-0.792,0.651,0.276,44476,2021-05-18 18:16:37:755
4.436,10.963,-1.726,3.139,9.215,-1.18,1.297,1.748,-0.546,-0.792,0.651,0.276,44476,2021-05-18 18:16:37:755
4.436,10.963,-1.726,3.139,9.215,-1.18,1.297,1.748,-0.546,-0.792,0.651,0.276,44476,2021-05-18 18:16:37:755
0.247,8.624,3.194,2.532,9.41,1.104,-2.599,-0.802,1.918,-0.122,-0.63,0.914,44751,2021-05-18 18:16:38:030
-0.441,7.975,6.385,0.804,8.952,3.923,-0.847,-1.558,1.599,0.135,-0.36,0.439,45360,2021-05-18 18:16:38:639
-0.441,7.975,6.385,0.804,8.952,3.923,-0.847,-1.558,1.599,0.135,-0.36,0.439,45361,2021-05-18 18:16:38:640
-0.441,7.975,6.385,0.804,8.952,3.923,-0.847,-1.558,1.599,0.135,-0.36,0.439,45362,2021-05-18 18:16:38:641
-0.441,7.975,6.385,0.804,8.952,3.923,-0.847,-1.558,1.599,0.135,-0.36,0.439,45363,2021-05-18 18:16:38:642
-0.441,7.975,6.385,0.804,8.952,3.923,-0.847,-1.558,1.599,0.135,-0.36,0.439,45363,2021-05-18 18:16:38:642
-0.441,7.975,6.385,0.804,8.952,3.923,-0.847,-1.558,1.599,0.135,-0.36,0.439,45364,2021-05-18 18:16:38:643
-0.441,7.975,6.385,0.804,8.952,3.923,-0.847,-1.558,1.599,0.135,-0.36,0.439,45365,2021-05-18 18:16:38:644
-1.48,8.274,4.178,0.998,8.857,4.089,-2.478,-0.583,0.089,0.286,-0.305,0.441,45365,2021-05-18 18:16:38:644
-1.48,8.274,4.178,0.998,8.857,4.089,-2.478,-0.583,0.089,0.286,-0.305,0.441,45366,2021-05-18 18:16:38:645
-1.48,8.274,4.178,0.998,8.857,4.089,-2.478,-0.583,0.089,0.286,-0.305,0.441,45366,2021-05-18 18:16:38:645
-1.48,8.274,4.178,0.998,8.857,4.089,-2.478,-0.583,0.089,0.286,-0.305,0.441,45367,2021-05-18 18:16:38:646
-1.48,8.274,4.178,0.998,8.857,4.089,-2.478,-0.583,0.089,0.286,-0.305,0.441,45367,2021-05-18 18:16:38:646
-1.48,8.274,4.178,0.998,8.857,4.089,-2.478,-0.583,0.089,0.286,-0.305,0.441,45368,2021-05-18 18:16:38:647
-1.48,8.274,4.178,0.998,8.857,4.089,-2.478,-0.583,0.089,0.286,-0.305,0.441,45368,2021-05-18 18:16:38:647
-1.48,8.274,4.178,0.998,8.857,4.089,-2.478,-0.583,0.089,0.286,-0.305,0.441,45369,2021-05-18 18:16:38:648
-1.48,8.274,4.178,0.998,8.857,4.089,-2.478,-0.583,0.089,0.286,-0.305,0.441,45370,2021-05-18 18:16:38:649
-1.48,8.274,4.178,0.998,8.857,4.089,-2.478,-0.583,0.089,0.286,-0.305,0.441,45370,2021-05-18 18:16:38:649
-1.48,8.274,4.178,0.998,8.857,4.089,-2.478,-0.583,0.089,0.286,-0.305,0.441,45371,2021-05-18 18:16:38:650
-1.48,8.274,4.178,0.998,8.857,4.089,-2.478,-0.583,0.089,0.286,-0.305,0.441,45371,2021-05-18 18:16:38:650
-1.48,8.274,4.178,0.998,8.857,4.089,-2.478,-0.583,0.089,0.286,-0.305,0.441,45372,2021-05-18 18:16:38:651
-1.48,8.274,4.178,0.998,8.857,4.089,-2.478,-0.583,0.089,0.286,-0.305,0.441,45372,2021-05-18 18:16:38:651
-1.48,8.274,4.178,0.998,8.857,4.089,-2.478,-0.583,0.089,0.286,-0.305,0.441,45372,2021-05-18 18:16:38:651
-1.48,8.274,4.178,0.998,8.857,4.089,-2.478,-0.583,0.089,0.286,-0.305,0.441,45373,2021-05-18 18:16:38:652
0.081,7.508,4.846,1.467,8.358,4.915,-1.233,-0.443,-0.263,-0.95,1.107,-0.046,45639,2021-05-18 18:16:38:918
0.045,8.696,4.35,0.821,7.807,5.877,-1.036,1.513,-1.175,0.127,0.142,2.166,46139,2021-05-18 18:16:39:418
1.827,8.528,3.033,2.145,8.971,3.331,-0.529,-0.864,-0.699,0.082,-0.305,0.572,46639,2021-05-18 18:16:39:918
-0.615,7.989,4.824,2.213,8.002,5.22,-1.816,-0.826,-0.578,0.299,0.996,-0.133,47140,2021-05-18 18:16:40:419
-0.091,9.572,4.463,-0.13,8.414,5.035,-0.03,1.337,-0.723,-0.031,-0.02,-0.302,47639,2021-05-18 18:16:40:918
0.45,7.906,7.748,0.55,7.121,6.72,-0.099,0.785,1.028,-0.84,-0.824,0.469,48140,2021-05-18 18:16:41:419
-0.304,9.328,5.938,0.006,8.758,4.412,-0.289,0.522,0.606,0.412,0.101,-0.827,48639,2021-05-18 18:16:41:918
-2.964,7.705,3.821,-1.37,9.029,3.572,-1.594,-1.325,0.249,0.491,-0.076,-0.136,49139,2021-05-18 18:16:42:418
-0.824,8.313,4.3,-0.152,8.817,4.29,-0.672,-0.504,0.01,-0.162,0.152,0.01,49639,2021-05-18 18:16:42:918
-1.671,7.875,4.108,-0.847,8.39,5.007,-0.824,-0.515,-0.898,-0.352,0.401,0.389,50139,2021-05-18 18:16:43:418
-1.551,10.321,2.274,-1.06,8.264,5.172,-3.171,1.294,-1.473,0.346,-0.235,-0.721,50639,2021-05-18 18:16:43:918
0.227,11.19,2.2,-0.449,8.749,4.407,0.298,-0.41,-0.214,-0.016,0.103,0.362,51139,2021-05-18 18:16:44:418
-0.8,8.121,4.638,0.915,8.78,4.272,-0.515,1.219,-0.25,-0.841,0.686,0.225,51639,2021-05-18 18:16:44:918
-0.012,9.285,4.235,1.484,8.541,4.585,-0.622,0.703,0.141,0.274,0.429,0.095,52139,2021-05-18 18:16:45:418
1.3,10.003,1.381,1.661,9.302,2.624,-0.361,0.701,-1.243,0.084,0.669,0.541,52639,2021-05-18 18:16:45:918
2.227,10.637,0.572,2.647,9.39,0.997,-0.073,2.011,-0.58,0.315,-0.525,0.491,53140,2021-05-18 18:16:46:419
2.322,9.433,1.372,3.266,9.107,1.603,-0.904,0.358,-0.092,-0.317,-0.186,0.123,53639,2021-05-18 18:16:46:918
2.354,9.203,1.142,2.718,9.228,1.905,0.257,0.68,-0.616,0.003,0.379,-0.067,54140,2021-05-18 18:16:47:419
1.211,9.244,-0.649,2.738,9.342,1.185,-1.196,-0.019,-1.001,0.135,-1.646,-0.546,54639,2021-05-18 18:16:47:918
0.136,8.411,2.61,2.34,9.484,0.866,-1.226,-0.728,1.337,-0.171,0.493,0.368,55139,2021-05-18 18:16:48:418
-0.45,9.242,0.101,1.61,9.663,0.459,-2.06,-0.421,-0.358,0.613,-0.082,0.054,55639,2021-05-18 18:16:48:918
1.279,8.665,-1.391,2.552,9.445,-0.666,-0.781,0.287,-0.17,0.625,0.31,0.184,56140,2021-05-18 18:16:49:419
4.087,8.009,-3.601,3.071,9.003,-2.385,0.643,-1.447,-1.113,-0.353,0.097,0.66,56640,2021-05-18 18:16:49:919
2.856,10.295,-1.762,4.642,8.442,-1.833,-2.482,1.652,-0.003,0.419,0.301,0.526,57139,2021-05-18 18:16:50:418
4.824,7.74,-2.749,5.049,8.163,-2.011,-0.224,-0.423,-0.738,-0.111,-0.348,0.058,57639,2021-05-18 18:16:50:918
1.343,9.1,-2.217,3.457,9.08,-1.334,-1.032,-1.684,-0.663,-0.158,-0.223,0.324,58320,2021-05-18 18:16:51:599
1.554,9.555,-2.054,3.103,9.204,-1.354,-1.549,0.351,-0.701,-0.158,-0.223,0.324,58322,2021-05-18 18:16:51:601
1.554,9.555,-2.054,3.103,9.204,-1.354,-1.549,0.351,-0.701,-0.158,-0.223,0.324,58323,2021-05-18 18:16:51:602
1.554,9.555,-2.054,3.103,9.204,-1.354,-1.549,0.351,-0.701,-0.158,-0.223,0.324,58324,2021-05-18 18:16:51:603
1.554,9.555,-2.054,3.103,9.204,-1.354,-1.549,0.351,-0.701,-0.158,-0.223,0.324,58324,2021-05-18 18:16:51:603
1.554,9.555,-2.054,3.103,9.204,-1.354,-1.549,0.351,-0.701,-0.158,-0.223,0.324,58326,2021-05-18 18:16:51:605
1.554,9.555,-2.054,3.103,9.204,-1.354,-1.549,0.351,-0.701,-0.158,-0.223,0.324,58326,2021-05-18 18:16:51:605
1.554,9.555,-2.054,3.103,9.204,-1.354,-1.549,0.351,-0.701,-0.158,-0.223,0.324,58327,2021-05-18 18:16:51:606
1.554,9.555,-2.054,3.103,9.204,-1.354,-1.549,0.351,-0.701,-0.158,-0.223,0.324,58327,2021-05-18 18:16:51:606
1.554,9.555,-2.054,3.103,9.204,-1.354,-1.549,0.351,-0.701,-0.158,-0.223,0.324,58327,2021-05-18 18:16:51:606
1.554,9.555,-2.054,3.103,9.204,-1.354,-1.549,0.351,-0.701,-0.158,-0.223,0.324,58328,2021-05-18 18:16:51:607
-0.589,9.711,-2.265,1.897,9.229,-2.719,-1.085,-0.214,0.416,0.092,-0.362,-0.61,58599,2021-05-18 18:16:51:878
-3.098,10.264,-2.342,-1.103,9.323,-2.836,-1.841,0.711,0.583,-0.062,-0.538,-0.243,59221,2021-05-18 18:16:52:500
-3.098,10.264,-2.342,-1.103,9.323,-2.836,-1.841,0.711,0.583,-0.062,-0.538,-0.243,59222,2021-05-18 18:16:52:501
-3.098,10.264,-2.342,-1.792,9.295,-2.56,-0.83,0.42,0.135,0.006,-0.488,-0.268,59223,2021-05-18 18:16:52:502
-2.622,9.716,-2.425,-1.792,9.295,-2.56,-0.83,0.42,0.135,0.006,-0.488,-0.268,59224,2021-05-18 18:16:52:503
-2.622,9.716,-2.425,-1.792,9.295,-2.56,-0.83,0.42,0.135,0.006,-0.488,-0.268,59224,2021-05-18 18:16:52:503
-2.622,9.716,-2.425,-1.792,9.295,-2.56,-0.83,0.42,0.135,0.006,-0.488,-0.268,59225,2021-05-18 18:16:52:504
-2.622,9.716,-2.425,-1.792,9.295,-2.56,-0.83,0.42,0.135,0.006,-0.488,-0.268,59225,2021-05-18 18:16:52:504
-2.622,9.716,-2.425,-1.792,9.295,-2.56,-0.83,0.42,0.135,0.006,-0.488,-0.268,59225,2021-05-18 18:16:52:504
-2.622,9.716,-2.425,-1.792,9.295,-2.56,-0.83,0.42,0.135,0.006,-0.488,-0.268,59226,2021-05-18 18:16:52:505
-2.622,9.716,-2.425,-1.792,9.295,-2.56,-0.83,0.42,0.135,0.006,-0.488,-0.268,59226,2021-05-18 18:16:52:505
-2.622,9.716,-2.425,-1.792,9.295,-2.56,-0.83,0.42,0.135,0.006,-0.488,-0.268,59226,2021-05-18 18:16:52:505
-2.622,9.716,-2.425,-1.792,9.295,-2.56,-0.83,0.42,0.135,0.006,-0.488,-0.268,59226,2021-05-18 18:16:52:505
-2.622,9.716,-2.425,-1.792,9.295,-2.56,-0.83,0.42,0.135,0.006,-0.488,-0.268,59227,2021-05-18 18:16:52:506
-2.622,9.716,-2.425,-1.792,9.295,-2.56,-0.83,0.42,0.135,0.006,-0.488,-0.268,59227,2021-05-18 18:16:52:506
-2.622,9.716,-2.425,-1.792,9.295,-2.56,-0.83,0.42,0.135,0.006,-0.488,-0.268,59227,2021-05-18 18:16:52:506
-2.622,9.716,-2.425,-1.792,9.295,-2.56,-0.83,0.42,0.135,0.006,-0.488,-0.268,59227,2021-05-18 18:16:52:506
-2.622,9.716,-2.425,-1.792,9.295,-2.56,-0.83,0.42,0.135,0.006,-0.488,-0.268,59228,2021-05-18 18:16:52:507
-2.622,9.716,-2.425,-1.792,9.295,-2.56,-0.83,0.42,0.135,0.006,-0.488,-0.268,59228,2021-05-18 18:16:52:507
-2.622,9.716,-2.425,-1.792,9.295,-2.56,-0.83,0.42,0.135,0.006,-0.488,-0.268,59228,2021-05-18 18:16:52:507
-2.622,9.716,-2.425,-1.792,9.295,-2.56,-0.83,0.42,0.135,0.006,-0.488,-0.268,59228,2021-05-18 18:16:52:507
-2.622,9.716,-2.425,-1.792,9.295,-2.56,-0.83,0.42,0.135,0.006,-0.488,-0.268,59229,2021-05-18 18:16:52:508
-2.622,9.716,-2.425,-1.792,9.295,-2.56,-0.83,0.42,0.135,0.006,-0.488,-0.268,59229,2021-05-18 18:16:52:508
-2.622,9.716,-2.425,-1.792,9.295,-2.56,-0.83,0.42,0.135,0.006,-0.488,-0.268,59229,2021-05-18 18:16:52:508
-2.622,9.716,-2.425,-1.792,9.295,-2.56,-0.83,0.42,0.135,0.006,-0.488,-0.268,59229,2021-05-18 18:16:52:508
-2.622,9.716,-2.425,-1.792,9.295,-2.56,-0.83,0.42,0.135,0.006,-0.488,-0.268,59230,2021-05-18 18:16:52:509
-2.622,9.716,-2.425,-1.792,9.295,-2.56,-0.83,0.42,0.135,0.006,-0.488,-0.268,59232,2021-05-18 18:16:52:511
-2.622,9.716,-2.425,-1.792,9.295,-2.56,-0.83,0.42,0.135,0.006,-0.488,-0.268,59232,2021-05-18 18:16:52:511
-2.622,9.716,-2.425,-1.792,9.295,-2.56,-0.83,0.42,0.135,0.006,-0.488,-0.268,59233,2021-05-18 18:16:52:512
-2.622,9.716,-2.425,-1.792,9.295,-2.56,-0.83,0.42,0.135,0.006,-0.488,-0.268,59233,2021-05-18 18:16:52:512
-1.958,8.294,3.728,-1.479,9.677,-0.578,-0.479,-1.384,4.305,0.046,1.47,0.676,59495,2021-05-18 18:16:52:774
0.924,8.021,4.616,0.399,9.049,3.758,0.525,-1.029,0.858,-1.127,-0.45,-0.513,60091,2021-05-18 18:16:53:370
0.924,8.021,4.616,0.399,9.049,3.758,0.525,-1.029,0.858,-1.127,-0.45,-0.513,60092,2021-05-18 18:16:53:371
0.924,8.021,4.616,0.399,9.049,3.758,0.525,-1.029,0.858,-1.127,-0.45,-0.513,60093,2021-05-18 18:16:53:372
0.924,8.021,4.616,0.399,9.049,3.758,0.525,-1.029,0.858,-1.127,-0.45,-0.513,60094,2021-05-18 18:16:53:373
0.924,8.021,4.616,0.399,9.049,3.758,0.525,-1.029,0.858,-1.127,-0.45,-0.513,60094,2021-05-18 18:16:53:373
2.512,-8.298,1.123,2.31,2.605,9.168,1.799,-8.632,-3.534,-0.908,0.31,-0.16,60371,2021-05-18 18:16:53:650
8.633,-5.605,3.326,7.323,-1.372,6.376,-0.489,-3.536,-2.666,-0.025,-0.91,-0.404,60871,2021-05-18 18:16:54:150
10.575,-1.288,10.336,6.98,-0.908,6.828,2.406,0.634,4.178,0.056,-0.132,-0.706,61371,2021-05-18 18:16:54:650
8.447,1.159,0.965,9.378,1.704,2.307,1.043,1.686,-2.871,0.615,1.025,-1.89,61871,2021-05-18 18:16:55:150
6.986,1.863,1.695,9.566,1.999,0.818,-2.579,-0.136,0.877,0.855,2.799,1.894,62371,2021-05-18 18:16:55:650
-6.747,-6.814,14.952,-0.147,-6.902,6.965,-2.773,-2.961,-3.461,-0.395,2.233,3.175,62871,2021-05-18 18:16:56:150
-6.352,-5.801,2.162,-7.495,-5.577,2.983,-7.759,2.559,5.583,1.404,1.166,3.962,63371,2021-05-18 18:16:56:650
-9.792,-0.397,4.302,-9.203,-0.392,3.363,-0.589,-0.005,0.939,0.886,0.923,0.52,63871,2021-05-18 18:16:57:150
-9.416,0.891,-0.836,-9.682,1.253,-0.929,0.18,0.016,-0.137,0.274,-0.4,0.041,64371,2021-05-18 18:16:57:650
-7.989,0.29,3.891,-9.196,0.656,3.343,1.426,-0.664,-0.396,1.323,-3.024,-1.638,64871,2021-05-18 18:16:58:150
0.826,0.431,9.725,0.137,0.403,9.797,1.585,1.105,-1.72,1.265,0.442,0.923,65371,2021-05-18 18:16:58:650
-3.996,-0.713,10.733,-3.237,0.161,9.256,-0.797,-0.878,1.636,0.1,0.236,-0.594,65875,2021-05-18 18:16:59:154
-1.369,5.148,8.104,-2.843,2.977,8.901,-2.789,-0.339,-1.542,0.971,0.902,1.353,66371,2021-05-18 18:16:59:650
1.923,3.924,8.255,1.89,3.312,9.035,0.061,-0.243,-1.32,-1.021,0.257,0.549,66872,2021-05-18 18:17:00:151
1.384,4.853,7.369,2.226,4.341,8.507,-0.737,1.439,-0.872,0.87,-0.699,-0.5,67371,2021-05-18 18:17:00:650
2.327,6.902,4.195,1.413,7.338,6.351,0.001,2.433,-0.388,0.307,-0.519,-0.33,67871,2021-05-18 18:17:01:150
1.796,9.864,2.121,2.121,9.077,3.047,-0.325,0.787,-0.925,1.653,0.062,0.206,68371,2021-05-18 18:17:01:650
1.867,6.869,-1.851,3.259,9.184,-1.099,-1.391,-2.315,-0.751,0.259,-0.411,0.285,68871,2021-05-18 18:17:02:150
3.153,8.835,-3.256,4.161,8.383,-2.929,-0.991,0.713,-0.544,-0.451,-0.097,0.343,69371,2021-05-18 18:17:02:650
-0.73,8.088,-5.818,2.513,8.397,-4.399,-1.701,-1.248,-2.471,0.642,1.681,-0.173,69871,2021-05-18 18:17:03:150
-3.644,8.514,-1.085,-1.667,9.439,-2.074,-1.977,-0.925,0.989,-1.365,-0.018,0.828,70371,2021-05-18 18:17:03:650
-0.362,9.098,0.68,0.87,9.741,0.719,0.058,0.401,-0.249,-0.582,-0.505,0.531,70871,2021-05-18 18:17:04:150
-1.369,10.702,0.002,0.161,9.805,-0.027,-1.383,0.316,-1.175,0.404,-0.087,-0.064,71372,2021-05-18 18:17:04:651
0.417,7.992,1.53,1.527,9.686,0.109,0.569,-0.013,0.935,0.874,-1.035,1.081,71871,2021-05-18 18:17:05:150
2.207,9.594,-0.141,1.485,9.692,-0.151,0.722,-0.099,0.01,-0.209,0.163,0.139,72371,2021-05-18 18:17:05:650
0.278,10.161,-2.246,1.853,9.517,-1.471,-0.564,-0.067,-0.769,0.043,0.085,-0.068,72872,2021-05-18 18:17:06:151
1.705,9.74,-1.609,2.906,9.235,-1.561,-0.584,0.551,-2.238,0.158,0.511,0.426,73372,2021-05-18 18:17:06:651
-0.493,9.694,-1.132,0.875,9.758,-0.439,-0.549,0.122,0.178,0.901,0.14,-2.181,73871,2021-05-18 18:17:07:150
-2.555,9.407,-1.769,-2.125,9.462,-1.455,-0.57,-0.482,0.067,-0.539,0.106,0.472,74371,2021-05-18 18:17:07:650
0.663,13.242,0.546,1.018,9.754,-0.027,-0.354,3.489,0.573,0.149,0.076,-0.12,74871,2021-05-18 18:17:08:150
-0.517,7.666,-0.51,1.105,9.721,0.677,-0.372,-1.71,-0.452,0.104,-0.131,0.188,75371,2021-05-18 18:17:08:650
0.115,8.873,0.127,1.059,9.733,0.564,-1.157,0.783,0.292,0.141,0.64,0.216,75871,2021-05-18 18:17:09:150
1.132,8.157,0.982,1.595,9.513,1.77,-0.462,-1.356,-0.789,-0.122,0.291,0.285,76371,2021-05-18 18:17:09:650
1.104,7.908,1.037,2.295,9.468,1.119,-0.972,-1.439,-0.273,-0.299,0.045,0.073,76871,2021-05-18 18:17:10:150
0.998,9.038,-0.369,2.113,9.53,0.942,-0.599,-0.51,-1.293,0.335,-0.112,0.098,77371,2021-05-18 18:17:10:650
1.02,9.567,1.293,1.256,9.662,1.114,-0.219,-0.345,0.358,-0.305,0.071,-0.041,77871,2021-05-18 18:17:11:150
-0.053,9.938,1.183,0.619,9.721,1.133,-0.765,0.233,-0.027,0.232,0.557,-0.381,78371,2021-05-18 18:17:11:650
0.364,11.497,0.239,1.016,9.749,0.296,-0.544,2.095,-0.225,0.346,-0.701,0.491,78872,2021-05-18 18:17:12:151
0.575,9.943,0.225,0.927,9.726,0.846,-0.594,0.383,-0.371,-0.13,-0.17,0.034,79372,2021-05-18 18:17:12:651
-1.475,9.524,1.343,0.959,9.623,1.626,-1.435,-0.265,-0.9,0.042,0.381,0.044,79871,2021-05-18 18:17:13:150
-2.217,1.025,10.161,-0.715,4.471,8.699,-1.135,-0.346,0.511,-4.025,0.133,-1.748,80371,2021-05-18 18:17:13:650
-0.503,-6.129,7.896,0.411,-5.614,8.03,0.349,-0.144,-0.254,-0.486,-0.475,-1.081,80871,2021-05-18 18:17:14:150
4.906,-7.058,5.832,3.401,-7.419,5.437,4.171,-0.482,1.73,-1.469,-1.211,-0.434,81372,2021-05-18 18:17:14:651
4.901,-6.132,4.654,7.241,-4.563,4.787,-1.541,-1.384,0.659,-0.39,0.556,0.465,81872,2021-05-18 18:17:15:151
7.585,-3.472,6.34,6.724,-4.175,5.79,0.762,0.857,0.612,0.326,0.103,0.065,82372,2021-05-18 18:17:15:651
5.725,-4.994,6.495,5.211,-5.19,6.486,0.991,0.054,-0.769,0.153,-0.381,1.624,82871,2021-05-18 18:17:16:150
5.827,-0.18,10.065,4.028,-0.453,8.93,1.037,0.982,1.211,5.891,-1.303,0.232,83371,2021-05-18 18:17:16:650
5.495,4.614,5.883,5.078,4.163,7.284,1.102,-0.209,-1.875,-0.575,-0.831,-0.125,83871,2021-05-18 18:17:17:150
5.851,5.222,5.092,5.083,4.714,6.936,0.76,0.638,-1.924,0.718,0.245,-0.079,84371,2021-05-18 18:17:17:650
2.263,7.846,4.798,2.461,7.856,5.329,-0.198,-0.145,-0.326,0.444,0.574,0.406,84871,2021-05-18 18:17:18:150
2.926,8.03,4.669,3.261,7.259,5.73,-0.421,0.311,-0.369,-2.778,-0.421,0.093,85371,2021-05-18 18:17:18:650
1.858,7.657,5.868,2.433,7.026,6.394,-1.227,0.971,-1.005,1.362,1.259,0.745,85871,2021-05-18 18:17:19:150
1.135,8.954,3.484,1.645,8.659,4.299,-0.891,0.417,-0.772,0.116,-0.229,-0.048,86371,2021-05-18 18:17:19:650
1.295,8.648,5.279,1.111,9.066,3.57,0.185,-0.418,1.709,0.248,-2.512,-0.429,86871,2021-05-18 18:17:20:150
1.106,9.572,1.793,1.921,9.207,2.776,-0.815,0.365,-0.982,0.74,0.257,0.462,87371,2021-05-18 18:17:20:650
3.318,9.002,-2.15,4.179,8.729,-1.588,-0.819,-0.327,-0.73,0.355,-0.321,0.675,87871,2021-05-18 18:17:21:150
5.459,8.851,1.779,4.582,8.603,1.081,1.268,1.146,2.098,-0.236,-1.465,-0.485,88371,2021-05-18 18:17:21:650
4.65,9.902,1.863,4.699,8.486,1.443,-2.544,-0.987,-0.102,-0.994,3.187,1.045,88871,2021-05-18 18:17:22:150
1.458,6.807,-1.439,2.813,9.383,0.463,-0.92,-4.644,-0.01,0.152,-0.533,0.442,89371,2021-05-18 18:17:22:650
0.903,9.328,-0.515,2.089,9.527,1.02,-1.527,-0.082,-0.983,1.385,-1.456,0.983,89871,2021-05-18 18:17:23:150
1.911,12.704,1.132,1.809,9.638,0.068,-0.009,3.093,0.784,-1.013,-1.412,1.025,90372,2021-05-18 18:17:23:651
1.714,10.199,0.271,2.403,9.505,-0.219,-0.545,0.126,0.31,0.195,0.34,-0.579,90871,2021-05-18 18:17:24:150
0.34,6.4,1.712,2.098,9.272,2.408,-1.809,-2.499,-0.936,-1.725,-0.385,0.146,91371,2021-05-18 18:17:24:650
4.468,19.261,5.569,0.599,8.437,4.962,3.968,10.697,0.818,1.505,-0.188,-2.636,91871,2021-05-18 18:17:25:150
-3.1,12.107,0.395,-1.093,9.187,3.252,-0.161,1.024,-0.356,-0.473,-1.75,-0.233,92371,2021-05-18 18:17:25:650
-0.804,4.52,7.305,1.186,5.906,7.738,-0.751,-3.03,0.017,-1.429,-2.765,2.385,92871,2021-05-18 18:17:26:150
-3.51,8.174,2.579,-2.258,8.34,4.639,3.618,2.346,-1.324,1.114,0.607,-1.503,93371,2021-05-18 18:17:26:650
4.175,8.303,1.973,4.693,8.2,2.629,-0.767,-0.136,-1.19,-0.324,-1.492,1.372,93871,2021-05-18 18:17:27:150
1.575,8.186,0.625,3.516,8.543,3.291,-2.032,-0.592,-1.905,0.476,-1.384,-0.127,94372,2021-05-18 18:17:27:651
0.615,8.363,0.285,2.162,9.479,1.284,-1.422,-1.114,-1.101,0.287,1.075,0.509,94871,2021-05-18 18:17:28:150
0.694,8.756,-0.373,2.408,9.449,1.047,-0.557,-0.299,-0.848,0.032,-1.119,-1.31,95371,2021-05-18 18:17:28:650
5.823,11.966,-2.772,-1.829,9.255,-2.679,7.717,-1.208,0.385,1.304,-4.644,-1.738,95871,2021-05-18 18:17:29:150
-4.448,4.123,4.173,-6.606,7.039,1.728,1.572,-3.258,1.837,-0.06,-1.545,2.467,96371,2021-05-18 18:17:29:650
-2.871,4.848,2.638,-2.547,8.814,3.465,-1.994,-4.091,-0.766,-0.644,0.611,1.316,96871,2021-05-18 18:17:30:150
-5.138,4.52,1.092,-4.202,8.782,1.178,0.707,-4.451,-0.769,0.219,-0.247,-0.819,97371,2021-05-18 18:17:30:650
-8.258,6.833,1.432,-1.785,9.552,1.317,-6.239,-2.673,0.116,-0.713,1.44,-0.242,97871,2021-05-18 18:17:31:150
-0.84,9.323,0.752,-0.856,9.747,0.666,-0.248,-0.418,-0.212,-1.315,-0.252,2.976,98371,2021-05-18 18:17:31:650
-1.858,9.699,0.496,-0.028,9.756,0.997,-0.836,-1.802,-0.044,-0.426,-0.2,0.544,98871,2021-05-18 18:17:32:150
0.101,9.711,2.339,0.88,9.483,2.34,-1.079,0.058,-1.009,-0.258,-0.988,0.227,99370,2021-05-18 18:17:32:649
-0.546,9.699,0.797,0.46,9.579,2.049,-1.034,0.066,-0.974,1.039,0.016,0.325,99871,2021-05-18 18:17:33:150
0.376,9.773,0.287,1.154,9.654,1.281,-1.035,-0.311,-1.15,-0.089,0.081,-0.197,100371,2021-05-18 18:17:33:650
0.158,10.192,1.386,1.001,9.735,0.634,-0.702,0.287,0.556,0.71,0.265,0.137,100871,2021-05-18 18:17:34:150
-1.391,3.936,0.984,-5.206,8.272,-0.8,2.88,-4.814,2.151,-0.8,0.613,-0.79,101371,2021-05-18 18:17:34:650
-1.58,10.432,5.693,-1.018,9.26,3.063,-1.772,-0.553,2.809,0.246,-2.315,1.456,101871,2021-05-18 18:17:35:150
4.022,6.062,4.482,4.056,7.738,4.454,-0.553,-1.185,0.071,-0.652,-1.004,-0.261,102371,2021-05-18 18:17:35:650
1.834,9.163,5.495,1.486,8.244,5.099,1.246,2.578,0.201,0.229,2.044,-1.429,102871,2021-05-18 18:17:36:150
1.896,10.077,2.753,1.104,9.632,1.473,0.786,0.425,1.422,-0.371,-0.872,-0.1,103371,2021-05-18 18:17:36:650
2.931,10.463,4.259,2.298,9.047,3.006,-1.116,1.014,0.167,0.005,1.842,-1.046,103871,2021-05-18 18:17:37:150
2.054,11.825,-1.568,2.415,9.467,0.841,0.075,9.083,-2.569,-0.071,-1.383,0.195,104371,2021-05-18 18:17:37:650
2.239,6.622,-2.131,0.978,9.756,-0.193,0.764,-3.067,-1.81,-0.586,2.059,0.966,104871,2021-05-18 18:17:38:150
-3.826,7.752,-0.038,0.255,9.767,0.84,-3.016,-2.254,-0.521,-0.669,-0.223,-0.382,105371,2021-05-18 18:17:38:650
3.474,9.895,-1.125,4.636,8.604,-0.808,-1.097,1.44,-0.011,0.392,-1.142,0.444,105871,2021-05-18 18:17:39:150
3.704,6.694,0.529,3.689,9.068,0.575,1.584,1.184,-0.064,-0.072,3.008,0.503,106371,2021-05-18 18:17:39:650
3.505,9.594,-0.594,3.254,9.244,0.347,-0.28,0.098,-0.456,0.049,0.213,-0.009,106871,2021-05-18 18:17:40:150
3.172,9.711,0.206,2.5,9.452,0.759,0.652,0.29,-0.826,-1.0,0.412,0.161,107371,2021-05-18 18:17:40:650
-0.067,8.6,3.33,0.147,8.739,4.447,-0.449,-0.123,-0.306,-0.82,0.17,-0.941,107871,2021-05-18 18:17:41:150
-0.764,9.711,3.668,-0.354,8.865,4.177,-1.076,0.448,-0.45,0.415,0.704,1.101,108371,2021-05-18 18:17:41:650
0.144,12.874,3.63,0.591,9.361,2.861,-0.677,3.592,0.573,0.214,-0.921,-0.82,108871,2021-05-18 18:17:42:150
3.797,8.217,4.343,3.258,8.971,2.254,0.312,-0.522,4.378,0.26,-0.414,1.073,109371,2021-05-18 18:17:42:650
0.613,6.297,-0.639,2.101,9.403,1.827,-1.427,-3.26,-2.709,0.002,-0.176,0.247,109871,2021-05-18 18:17:43:150
3.428,9.584,2.696,1.652,9.326,2.543,0.689,2.119,-0.32,-0.958,0.173,0.372,110371,2021-05-18 18:17:43:650
-0.69,9.608,6.998,-0.103,7.521,6.292,-1.226,2.551,1.247,0.171,-0.478,0.002,110871,2021-05-18 18:17:44:150
-0.646,10.652,1.681,1.024,9.477,2.305,-1.474,1.066,-0.217,1.594,-0.548,-0.69,111371,2021-05-18 18:17:44:650
0.122,9.036,1.393,0.903,9.651,1.486,-0.987,-1.333,-0.142,-0.304,-0.52,0.277,111871,2021-05-18 18:17:45:150
-2.011,10.458,-0.608,-0.532,9.786,-0.338,-0.993,0.455,0.194,0.729,0.262,-0.015,112371,2021-05-18 18:17:45:650
-1.405,8.26,-3.716,-0.072,9.64,-1.797,-0.333,-1.658,1.196,-0.016,-0.96,0.792,112871,2021-05-18 18:17:46:150
-0.354,10.048,-0.156,1.034,9.748,-0.285,-1.359,0.294,-0.04,-0.607,0.895,0.004,113371,2021-05-18 18:17:46:650
-0.316,9.459,-0.792,0.994,9.747,0.425,-1.718,-0.934,-0.563,0.283,0.374,0.285,113871,2021-05-18 18:17:47:150
-0.713,7.092,-0.043,-0.202,9.804,0.117,-0.119,-2.593,-0.466,-0.192,-0.67,-0.359,114371,2021-05-18 18:17:47:650
0.048,10.336,-0.098,0.633,9.766,0.629,-0.502,-0.346,-0.208,1.139,-0.538,-0.257,114871,2021-05-18 18:17:48:150
1.283,10.58,-2.672,1.318,9.382,-2.531,-0.264,1.521,0.189,-0.324,-0.677,0.307,115370,2021-05-18 18:17:48:649
1.173,10.606,-1.228,0.147,9.693,-1.482,0.835,0.895,0.095,-0.332,-0.779,0.784,115871,2021-05-18 18:17:49:150
-0.204,10.496,0.232,0.648,9.751,-0.818,-0.421,3.951,0.225,0.668,0.148,-0.398,116371,2021-05-18 18:17:49:650
-1.542,7.796,-2.873,-0.24,9.397,-2.796,-1.491,-1.113,0.26,-0.152,-0.042,0.18,116871,2021-05-18 18:17:50:150
-4.544,8.894,-1.628,-2.932,9.279,-1.215,-1.959,-0.415,0.053,-0.739,-0.706,0.164,117371,2021-05-18 18:17:50:650
0.62,10.269,-0.761,1.099,9.745,0.021,-1.407,0.105,0.54,-0.086,0.655,0.007,117871,2021-05-18 18:17:51:150
-1.434,7.98,0.606,0.048,9.748,1.07,-1.025,-0.971,0.328,0.053,0.073,0.676,118371,2021-05-18 18:17:51:650
-0.742,11.964,-0.713,0.327,9.8,-0.129,-0.306,1.543,-1.178,-0.407,-0.001,-0.935,118871,2021-05-18 18:17:52:150
-4.077,7.69,-4.843,-3.171,8.319,-4.113,-1.084,-0.65,-0.642,-0.148,-0.56,0.167,119371,2021-05-18 18:17:52:650
0.596,8.945,-2.14,0.726,9.486,-2.381,-0.566,-0.773,-0.446,-0.63,1.126,0.807,119871,2021-05-18 18:17:53:150
-0.579,10.891,0.12,1.504,9.69,0.131,-1.808,0.584,0.192,-0.349,0.349,0.443,120371,2021-05-18 18:17:53:650
0.742,7.999,-1.085,1.299,9.708,0.488,-1.004,-0.741,-0.353,-0.13,-0.018,0.145,120871,2021-05-18 18:17:54:150
0.498,8.317,-2.428,1.364,9.663,-0.969,-0.866,-1.345,-1.459,0.024,0.022,0.411,121371,2021-05-18 18:17:54:650
0.778,13.07,-1.937,1.435,9.588,-1.475,-0.657,3.482,-0.462,-0.25,-0.211,0.393,121871,2021-05-18 18:17:55:150
1.001,11.77,-2.849,0.87,8.803,-4.234,-0.043,0.949,0.529,0.525,0.078,-0.115,122371,2021-05-18 18:17:55:650
-0.733,7.587,-4.755,-0.164,8.466,-4.947,-0.8,-0.842,-0.378,-0.265,-0.558,0.276,122871,2021-05-18 18:17:56:150
-0.199,9.816,-2.799,0.639,9.341,-2.918,-1.156,0.605,-0.089,-0.538,-0.242,0.384,123371,2021-05-18 18:17:56:650
-0.242,9.522,-3.622,0.426,9.285,-3.128,-0.47,-3.165,-1.516,0.899,0.234,0.715,123871,2021-05-18 18:17:57:150
-0.915,9.206,-3.112,-0.149,9.167,-3.48,-0.766,0.038,0.367,-0.084,-0.254,-0.253,124371,2021-05-18 18:17:57:650
-1.544,8.914,-1.314,-0.79,9.734,-0.891,-0.484,-2.307,-0.57,-0.831,-0.541,0.378,124871,2021-05-18 18:17:58:150
-1.164,10.396,-0.658,0.377,9.796,-0.25,-2.042,0.543,0.15,-0.154,-1.355,1.197,125371,2021-05-18 18:17:58:650
-0.481,9.373,2.097,1.172,9.6,1.626,-0.988,1.241,0.484,0.78,-0.415,-0.504,125872,2021-05-18 18:17:59:151
-0.706,10.35,-0.888,0.278,9.803,-0.015,-0.324,-0.117,-0.423,-0.362,-0.351,0.199,126371,2021-05-18 18:17:59:650
-2.248,9.459,0.656,-1.05,9.691,1.076,-0.183,0.369,-0.073,0.373,0.585,-0.001,126871,2021-05-18 18:18:00:150
0.737,9.378,-1.602,1.754,9.644,-0.309,-1.157,-0.017,-1.153,0.621,1.566,0.72,127371,2021-05-18 18:18:00:650
0.984,9.567,-1.702,1.999,9.525,-1.202,-0.273,0.317,-0.742,-0.173,0.006,-0.148,127871,2021-05-18 18:18:01:150
1.314,7.918,-1.377,2.731,9.366,-0.992,-0.841,2.273,-0.907,0.221,-0.19,1.195,128371,2021-05-18 18:18:01:650
-0.22,9.749,-4.499,0.634,9.22,-3.28,-0.213,-0.475,-0.394,-0.916,-0.195,-0.972,128872,2021-05-18 18:18:02:151
-1.686,8.176,1.501,-1.2,9.666,1.139,-0.295,-1.424,0.264,-0.973,-0.6,0.437,129371,2021-05-18 18:18:02:650
-4.393,3.165,7.202,-0.763,9.003,3.813,-3.63,-5.838,3.389,-0.924,-0.516,0.189,129871,2021-05-18 18:18:03:150
-4.393,3.165,7.202,-0.763,9.003,3.813,-3.63,-5.838,3.389,-0.924,-0.516,0.189,129872,2021-05-18 18:18:03:151
-4.393,3.165,7.202,-0.763,9.003,3.813,-3.63,-5.838,3.389,-0.924,-0.516,0.189,129872,2021-05-18 18:18:03:151
-4.393,3.165,7.202,-0.763,9.003,3.813,-3.63,-5.838,3.389,-0.924,-0.516,0.189,129873,2021-05-18 18:18:03:152
-4.393,3.165,7.202,-0.763,9.003,3.813,-3.63,-5.838,3.389,-0.924,-0.516,0.189,129873,2021-05-18 18:18:03:152
-4.393,3.165,7.202,-0.763,9.003,3.813,-3.63,-5.838,3.389,-0.924,-0.516,0.189,129873,2021-05-18 18:18:03:152
-4.393,3.165,7.202,-0.763,9.003,3.813,-3.63,-5.838,3.389,-0.924,-0.516,0.189,129873,2021-05-18 18:18:03:152
-4.393,3.165,7.202,-0.763,9.003,3.813,-3.63,-5.838,3.389,-0.924,-0.516,0.189,129873,2021-05-18 18:18:03:152
-4.393,3.165,7.202,-0.763,9.003,3.813,-3.63,-5.838,3.389,-0.924,-0.516,0.189,129874,2021-05-18 18:18:03:153
-4.393,3.165,7.202,-0.763,9.003,3.813,-3.63,-5.838,3.389,-0.924,-0.516,0.189,129874,2021-05-18 18:18:03:153
-4.393,3.165,7.202,-0.763,9.003,3.813,-3.63,-5.838,3.389,-0.924,-0.516,0.189,129874,2021-05-18 18:18:03:153
-4.393,3.165,7.202,-0.763,9.003,3.813,-3.63,-5.838,3.389,-0.924,-0.516,0.189,129874,2021-05-18 18:18:03:153
-4.393,3.165,7.202,-0.763,9.003,3.813,-3.63,-5.838,3.389,-0.924,-0.516,0.189,129874,2021-05-18 18:18:03:153
-4.393,3.165,7.202,-0.763,9.003,3.813,-3.63,-5.838,3.389,-0.924,-0.516,0.189,129875,2021-05-18 18:18:03:154
-4.393,3.165,7.202,-0.763,9.003,3.813,-3.63,-5.838,3.389,-0.924,-0.516,0.189,129875,2021-05-18 18:18:03:154
-4.393,3.165,7.202,-0.763,9.003,3.813,-3.63,-5.838,3.389,-0.924,-0.516,0.189,129875,2021-05-18 18:18:03:154
-4.393,3.165,7.202,-0.763,9.003,3.813,-3.63,-5.838,3.389,-0.924,-0.516,0.189,129875,2021-05-18 18:18:03:154
-4.393,3.165,7.202,-0.763,9.003,3.813,-3.63,-5.838,3.389,-0.924,-0.516,0.189,129875,2021-05-18 18:18:03:154
-4.393,3.165,7.202,-0.763,9.003,3.813,-3.63,-5.838,3.389,-0.924,-0.516,0.189,129876,2021-05-18 18:18:03:155
-4.393,3.165,7.202,-0.763,9.003,3.813,-3.63,-5.838,3.389,-0.924,-0.516,0.189,129876,2021-05-18 18:18:03:155
-4.393,3.165,7.202,-0.763,9.003,3.813,-3.63,-5.838,3.389,-0.924,-0.516,0.189,129876,2021-05-18 18:18:03:155
-4.393,3.165,7.202,-0.763,9.003,3.813,-3.63,-5.838,3.389,-0.924,-0.516,0.189,129876,2021-05-18 18:18:03:155
-4.393,3.165,7.202,-0.763,9.003,3.813,-3.63,-5.838,3.389,-0.924,-0.516,0.189,129876,2021-05-18 18:18:03:155
-4.393,3.165,7.202,-0.763,9.003,3.813,-3.63,-5.838,3.389,-0.924,-0.516,0.189,129877,2021-05-18 18:18:03:156
-4.393,3.165,7.202,-0.763,9.003,3.813,-3.63,-5.838,3.389,-0.924,-0.516,0.189,129877,2021-05-18 18:18:03:156
-4.393,3.165,7.202,-0.763,9.003,3.813,-3.63,-5.838,3.389,-0.924,-0.516,0.189,129877,2021-05-18 18:18:03:156
-4.393,3.165,7.202,-0.763,9.003,3.813,-3.63,-5.838,3.389,-0.924,-0.516,0.189,129877,2021-05-18 18:18:03:156
-4.393,3.165,7.202,-0.763,9.003,3.813,-3.63,-5.838,3.389,-0.924,-0.516,0.189,129877,2021-05-18 18:18:03:156
-4.393,3.165,7.202,-0.763,9.003,3.813,-3.63,-5.838,3.389,-0.924,-0.516,0.189,129878,2021-05-18 18:18:03:157
-4.393,3.165,7.202,-0.763,9.003,3.813,-3.63,-5.838,3.389,-0.924,-0.516,0.189,129878,2021-05-18 18:18:03:157
-4.393,3.165,7.202,-0.763,9.003,3.813,-3.63,-5.838,3.389,-0.924,-0.516,0.189,129878,2021-05-18 18:18:03:157
3.903,7.484,2.207,0.239,9.15,3.52,1.307,-2.791,2.549,3.375,1.408,0.166,130092,2021-05-18 18:18:03:371
-3.472,8.751,-2.552,-1.411,9.581,-1.541,-0.653,0.056,-1.108,0.929,-1.883,-0.469,130592,2021-05-18 18:18:03:871
-2.535,7.209,-1.252,-1.759,9.64,-0.376,-0.593,-2.868,0.689,0.696,-0.254,0.858,131092,2021-05-18 18:18:04:371
3.065,15.239,3.531,-0.638,9.709,1.222,3.498,5.519,2.304,-0.167,0.443,0.745,131592,2021-05-18 18:18:04:871
1.18,9.122,0.249,1.16,9.731,0.353,0.034,-0.607,-0.204,-0.732,0.194,-0.007,132092,2021-05-18 18:18:05:371
1.142,14.286,-1.398,-0.206,9.702,1.414,-4.062,5.033,-2.441,-0.689,-0.723,-0.498,132593,2021-05-18 18:18:05:872
0.136,9.007,1.693,0.334,9.649,1.719,-0.696,-0.75,-0.184,0.495,0.539,0.488,133092,2021-05-18 18:18:06:371
-0.534,9.867,-0.175,-0.206,9.74,1.125,-0.328,0.127,-1.3,0.263,0.516,0.088,133592,2021-05-18 18:18:06:871
-2.835,9.627,-1.209,-1.086,9.742,0.298,-1.695,-0.012,-1.01,0.029,-0.079,-0.645,134092,2021-05-18 18:18:07:371
3.187,11.286,-1.927,2.661,9.266,-1.795,0.793,1.152,0.283,-0.33,-1.7,0.184,134592,2021-05-18 18:18:07:871
0.457,10.147,-0.153,1.385,9.689,0.615,-0.687,-0.031,-0.118,-0.836,1.36,-0.249,135092,2021-05-18 18:18:08:371
1.547,9.093,2.782,1.918,9.418,1.945,-0.318,-0.352,0.914,1.211,0.957,0.002,135592,2021-05-18 18:18:08:871
0.204,9.653,0.555,0.713,9.737,0.924,-0.447,-0.248,-0.137,-0.307,0.464,-0.483,136092,2021-05-18 18:18:09:371
-1.702,8.854,0.251,-0.277,9.752,1.0,-0.651,-0.72,-1.016,-0.398,0.016,0.107,136592,2021-05-18 18:18:09:871
-0.95,9.61,-0.086,-0.636,9.759,0.727,-1.175,-0.372,-1.161,0.156,-0.348,0.273,137092,2021-05-18 18:18:10:371
-0.893,9.91,-1.197,-0.116,9.758,-0.97,-1.084,-0.289,-0.354,0.776,0.195,0.153,137592,2021-05-18 18:18:10:871
-0.69,10.063,-2.883,0.26,9.529,-2.303,-0.904,0.587,-0.365,-0.822,-0.013,0.258,138092,2021-05-18 18:18:11:371
-0.505,9.369,0.256,0.55,9.736,1.041,-1.081,-0.719,-0.742,-0.509,0.254,0.657,138592,2021-05-18 18:18:11:871
0.486,7.633,0.553,0.653,9.755,0.764,-1.365,-1.938,-0.788,0.281,0.121,-0.305,139092,2021-05-18 18:18:12:371
-0.256,10.537,0.891,0.447,9.788,0.409,-0.564,0.757,0.231,0.071,-0.161,0.075,139592,2021-05-18 18:18:12:871
0.97,9.515,0.134,1.104,9.743,-0.142,-0.217,-0.139,0.133,-0.11,-0.063,-0.103,140092,2021-05-18 18:18:13:371
-1.015,7.293,1.566,0.043,9.791,-0.547,-0.709,-1.378,1.733,0.244,0.084,-0.421,140592,2021-05-18 18:18:13:871
0.419,4.068,-5.533,0.192,9.392,-2.816,-0.168,-1.391,-0.157,-1.892,-0.368,1.073,141092,2021-05-18 18:18:14:371
0.819,14.43,-4.693,1.095,9.43,-2.458,-0.447,5.077,-2.028,0.676,-0.4,0.847,141592,2021-05-18 18:18:14:871
0.587,8.61,1.276,0.192,9.804,-0.135,-0.066,-2.938,0.122,0.32,-0.472,-0.688,142092,2021-05-18 18:18:15:371
-1.324,8.835,-0.431,0.218,9.804,0.005,-0.977,-2.415,-1.9,-0.564,1.115,1.007,142689,2021-05-18 18:18:15:968
0.484,9.828,1.686,0.719,9.78,0.038,-0.235,0.048,1.648,-0.02,-0.059,0.859,142695,2021-05-18 18:18:15:974
0.484,9.828,1.686,0.719,9.78,0.038,-0.235,0.048,1.648,-0.02,-0.059,0.859,142696,2021-05-18 18:18:15:975
0.484,9.828,1.686,0.719,9.78,0.038,-0.235,0.048,1.648,-0.02,-0.059,0.859,142697,2021-05-18 18:18:15:976
0.484,9.828,1.686,0.719,9.78,0.038,-0.235,0.048,1.648,-0.02,-0.059,0.859,142703,2021-05-18 18:18:15:982
0.484,9.828,1.686,0.719,9.78,0.038,-0.235,0.048,1.648,-0.02,-0.059,0.859,142704,2021-05-18 18:18:15:983
0.484,9.828,1.686,0.719,9.78,0.038,-0.235,0.048,1.648,-0.02,-0.059,0.859,142704,2021-05-18 18:18:15:983
0.484,9.828,1.686,0.719,9.78,0.038,-0.235,0.048,1.648,-0.02,-0.059,0.859,142705,2021-05-18 18:18:15:984
0.484,9.828,1.686,0.719,9.78,0.038,-0.235,0.048,1.648,-0.02,-0.059,0.859,142706,2021-05-18 18:18:15:985
0.01,8.442,1.3,0.255,9.71,1.35,-0.246,-1.268,-0.05,0.297,1.737,-0.927,142962,2021-05-18 18:18:16:241
-0.565,9.574,-0.225,0.131,9.76,0.951,-0.987,-0.62,-1.396,-0.289,-0.688,-0.259,143509,2021-05-18 18:18:16:788
-0.18,11.748,-1.362,0.327,9.788,-0.517,-0.759,1.566,0.454,-0.206,0.23,-0.936,143962,2021-05-18 18:18:17:241
0.804,8.521,-1.173,3.045,9.322,-0.061,-2.24,-0.801,-1.112,0.481,3.214,2.334,144462,2021-05-18 18:18:17:741
2.459,8.78,1.221,2.704,9.331,1.337,-0.91,-1.443,1.188,-0.059,0.031,-1.077,144962,2021-05-18 18:18:18:241
5.799,9.249,1.626,2.022,9.595,0.102,0.459,-0.454,-0.793,-0.861,-2.102,0.51,145462,2021-05-18 18:18:18:741
-1.982,10.453,-4.202,2.67,9.247,-1.881,0.486,-2.172,-0.632,-0.11,-2.023,1.427,145962,2021-05-18 18:18:19:241
1.302,9.479,-2.016,-0.152,9.731,-1.208,1.455,-0.252,-0.808,0.569,-2.088,1.563,146621,2021-05-18 18:18:19:900
1.302,9.479,-2.016,-0.152,9.731,-1.208,1.455,-0.252,-0.808,0.569,-2.088,1.563,146622,2021-05-18 18:18:19:901
1.302,9.479,-2.016,-0.152,9.731,-1.208,1.455,-0.252,-0.808,0.569,-2.088,1.563,146622,2021-05-18 18:18:19:901
1.302,9.479,-2.016,-0.152,9.731,-1.208,1.455,-0.252,-0.808,0.569,-2.088,1.563,146623,2021-05-18 18:18:19:902
-1.082,0.385,9.081,1.421,9.68,-0.663,-2.503,-9.295,9.745,-0.585,0.25,0.409,146623,2021-05-18 18:18:19:902
-0.196,-1.901,10.884,2.068,8.304,4.79,-3.448,-9.133,5.161,0.345,-0.604,-0.117,146892,2021-05-18 18:18:20:171
-4.456,7.118,2.241,-2.975,8.671,3.484,-1.52,-1.536,-1.064,0.491,0.065,0.619,147500,2021-05-18 18:18:20:779
-4.456,7.118,2.241,-2.975,8.671,3.484,-1.52,-1.536,-1.064,0.491,0.065,0.619,147501,2021-05-18 18:18:20:780
-4.456,7.118,2.241,-2.975,8.671,3.484,-1.52,-1.536,-1.064,0.491,0.065,0.619,147502,2021-05-18 18:18:20:781
-4.456,7.118,2.241,-2.975,8.671,3.484,-1.52,-1.536,-1.064,0.491,0.065,0.619,147503,2021-05-18 18:18:20:782
-4.456,7.118,2.241,-2.975,8.671,3.484,-1.52,-1.536,-1.064,0.491,0.065,0.619,147503,2021-05-18 18:18:20:782
-4.456,7.118,2.241,-2.975,8.671,3.484,-1.52,-1.536,-1.064,0.491,0.065,0.619,147504,2021-05-18 18:18:20:783
-4.456,7.118,2.241,-2.975,8.671,3.484,-1.52,-1.536,-1.064,0.491,0.065,0.619,147504,2021-05-18 18:18:20:783
-4.456,7.118,2.241,-2.975,8.671,3.484,-1.52,-1.536,-1.064,0.491,0.065,0.619,147504,2021-05-18 18:18:20:783
-4.456,7.118,2.241,-2.975,8.671,3.484,-1.654,-1.037,-0.168,0.415,-0.162,0.599,147505,2021-05-18 18:18:20:784
-4.834,7.69,2.976,-3.18,8.728,3.144,-1.654,-1.037,-0.168,0.415,-0.162,0.599,147510,2021-05-18 18:18:20:789
-4.834,7.69,2.976,-3.18,8.728,3.144,-1.654,-1.037,-0.168,0.415,-0.162,0.599,147511,2021-05-18 18:18:20:790
-1.104,9.663,0.807,-1.233,9.592,1.624,0.205,-0.019,-2.035,-0.628,0.076,0.4,147780,2021-05-18 18:18:21:059
1.508,9.491,-0.084,1.587,9.583,1.348,0.2,0.068,-1.484,-0.445,0.987,0.632,148380,2021-05-18 18:18:21:659
1.508,9.491,-0.084,1.587,9.583,1.348,0.2,0.068,-1.484,-0.445,0.987,0.632,148381,2021-05-18 18:18:21:660
2.217,8.392,0.393,1.869,9.446,1.855,0.348,-1.055,-1.462,-0.615,1.012,0.695,148382,2021-05-18 18:18:21:661
2.217,8.392,0.393,1.869,9.446,1.855,0.348,-1.055,-1.462,-0.615,1.012,0.695,148383,2021-05-18 18:18:21:662
2.217,8.392,0.393,1.869,9.446,1.855,0.348,-1.055,-1.462,-0.615,1.012,0.695,148383,2021-05-18 18:18:21:662
2.217,8.392,0.393,1.869,9.446,1.855,0.348,-1.055,-1.462,-0.615,1.012,0.695,148384,2021-05-18 18:18:21:663
2.217,8.392,0.393,1.869,9.446,1.855,0.348,-1.055,-1.462,-0.615,1.012,0.695,148384,2021-05-18 18:18:21:663
2.217,8.392,0.393,1.869,9.446,1.855,0.348,-1.055,-1.462,-0.615,1.012,0.695,148386,2021-05-18 18:18:21:665
2.217,8.392,0.393,1.869,9.446,1.855,0.348,-1.055,-1.462,-0.615,1.012,0.695,148386,2021-05-18 18:18:21:665
2.217,8.392,0.393,1.869,9.446,1.855,0.348,-1.055,-1.462,-0.615,1.012,0.695,148387,2021-05-18 18:18:21:666
2.217,8.392,0.393,1.869,9.446,1.855,0.348,-1.055,-1.462,-0.615,1.012,0.695,148387,2021-05-18 18:18:21:666
2.217,8.392,0.393,1.869,9.446,1.855,0.348,-1.055,-1.462,-0.615,1.012,0.695,148389,2021-05-18 18:18:21:668
2.217,8.392,0.393,1.869,9.446,1.855,0.348,-1.055,-1.462,-0.615,1.012,0.695,148390,2021-05-18 18:18:21:669
2.217,8.392,0.393,1.869,9.446,1.855,0.348,-1.055,-1.462,-0.615,1.012,0.695,148391,2021-05-18 18:18:21:670
2.217,8.392,0.393,1.869,9.446,1.855,0.348,-1.055,-1.462,-0.615,1.012,0.695,148392,2021-05-18 18:18:21:671
2.217,8.392,0.393,1.869,9.446,1.855,0.348,-1.055,-1.462,-0.615,1.012,0.695,148392,2021-05-18 18:18:21:671
2.217,8.392,0.393,1.869,9.446,1.855,0.348,-1.055,-1.462,-0.615,1.012,0.695,148397,2021-05-18 18:18:21:676
-6.773,5.856,8.535,2.384,8.646,3.968,-5.51,-2.49,3.803,1.623,1.553,1.121,148660,2021-05-18 18:18:21:939
-2.195,8.284,-3.958,-0.617,9.588,-1.964,-0.167,-1.157,-2.427,2.169,0.649,-0.233,149161,2021-05-18 18:18:22:440
0.634,8.557,3.855,-0.404,9.467,-2.527,-1.204,-0.38,-0.316,-0.119,0.527,-0.602,149660,2021-05-18 18:18:22:939
0.634,8.557,3.855,-0.404,9.467,-2.527,-1.204,-0.38,-0.316,-0.119,0.527,-0.602,149661,2021-05-18 18:18:22:940
0.634,8.557,3.855,-0.404,9.467,-2.527,-1.204,-0.38,-0.316,-0.119,0.527,-0.602,149661,2021-05-18 18:18:22:940
0.634,8.557,3.855,-0.404,9.467,-2.527,-1.204,-0.38,-0.316,-0.119,0.527,-0.602,149661,2021-05-18 18:18:22:940
0.634,8.557,3.855,-0.404,9.467,-2.527,-1.204,-0.38,-0.316,-0.119,0.527,-0.602,149661,2021-05-18 18:18:22:940
0.634,8.557,3.855,-0.404,9.467,-2.527,-1.204,-0.38,-0.316,-0.119,0.527,-0.602,149662,2021-05-18 18:18:22:941
0.634,8.557,3.855,-0.404,9.467,-2.527,-1.204,-0.38,-0.316,-0.119,0.527,-0.602,149662,2021-05-18 18:18:22:941
0.634,8.557,3.855,-0.404,9.467,-2.527,-1.204,-0.38,-0.316,-0.119,0.527,-0.602,149662,2021-05-18 18:18:22:941
0.634,8.557,3.855,-0.404,9.467,-2.527,-1.204,-0.38,-0.316,-0.119,0.527,-0.602,149662,2021-05-18 18:18:22:941
0.634,8.557,3.855,-0.404,9.467,-2.527,-1.204,-0.38,-0.316,-0.119,0.527,-0.602,149662,2021-05-18 18:18:22:941
0.634,8.557,3.855,-0.404,9.467,-2.527,-1.204,-0.38,-0.316,-0.119,0.527,-0.602,149662,2021-05-18 18:18:22:941
0.634,8.557,3.855,-0.404,9.467,-2.527,-1.204,-0.38,-0.316,-0.119,0.527,-0.602,149663,2021-05-18 18:18:22:942
0.634,8.557,3.855,-0.404,9.467,-2.527,-1.204,-0.38,-0.316,-0.119,0.527,-0.602,149663,2021-05-18 18:18:22:942
0.634,8.557,3.855,-0.404,9.467,-2.527,-1.204,-0.38,-0.316,-0.119,0.527,-0.602,149663,2021-05-18 18:18:22:942
0.634,8.557,3.855,-0.404,9.467,-2.527,-1.204,-0.38,-0.316,-0.119,0.527,-0.602,149663,2021-05-18 18:18:22:942
0.634,8.557,3.855,-0.404,9.467,-2.527,-1.204,-0.38,-0.316,-0.119,0.527,-0.602,149663,2021-05-18 18:18:22:942
0.634,8.557,3.855,-0.404,9.467,-2.527,-1.204,-0.38,-0.316,-0.119,0.527,-0.602,149664,2021-05-18 18:18:22:943
0.634,8.557,3.855,-0.404,9.467,-2.527,-1.204,-0.38,-0.316,-0.119,0.527,-0.602,149664,2021-05-18 18:18:22:943
0.634,8.557,3.855,-0.404,9.467,-2.527,-1.204,-0.38,-0.316,-0.119,0.527,-0.602,149664,2021-05-18 18:18:22:943
0.634,8.557,3.855,-0.404,9.467,-2.527,-1.204,-0.38,-0.316,-0.119,0.527,-0.602,149664,2021-05-18 18:18:22:943
0.634,8.557,3.855,-0.404,9.467,-2.527,-1.204,-0.38,-0.316,-0.119,0.527,-0.602,149664,2021-05-18 18:18:22:943
0.634,8.557,3.855,-0.404,9.467,-2.527,-1.204,-0.38,-0.316,-0.119,0.527,-0.602,149664,2021-05-18 18:18:22:943
0.634,8.557,3.855,-0.404,9.467,-2.527,-1.204,-0.38,-0.316,-0.119,0.527,-0.602,149665,2021-05-18 18:18:22:944
0.634,8.557,3.855,-0.404,9.467,-2.527,-1.204,-0.38,-0.316,-0.119,0.527,-0.602,149666,2021-05-18 18:18:22:945
0.634,8.557,3.855,-0.404,9.467,-2.527,-1.204,-0.38,-0.316,-0.119,0.527,-0.602,149666,2021-05-18 18:18:22:945
0.634,8.557,3.855,-0.404,9.467,-2.527,-1.204,-0.38,-0.316,-0.119,0.527,-0.602,149666,2021-05-18 18:18:22:945
0.634,8.557,3.855,-0.404,9.467,-2.527,-1.204,-0.38,-0.316,-0.119,0.527,-0.602,149666,2021-05-18 18:18:22:945
0.634,8.557,3.855,-0.404,9.467,-2.527,-1.204,-0.38,-0.316,-0.119,0.527,-0.602,149666,2021-05-18 18:18:22:945
0.634,8.557,3.855,-0.404,9.467,-2.527,-1.204,-0.38,-0.316,-0.119,0.527,-0.602,149666,2021-05-18 18:18:22:945
0.634,8.557,3.855,-0.404,9.467,-2.527,-1.204,-0.38,-0.316,-0.119,0.527,-0.602,149667,2021-05-18 18:18:22:946
-0.366,9.862,3.56,-0.771,9.682,-1.353,-0.811,0.246,4.916,-0.001,1.72,0.689,149848,2021-05-18 18:18:23:127
1.484,9.711,-0.101,3.554,9.096,-0.894,-1.758,0.508,0.881,0.644,-1.187,-1.324,150349,2021-05-18 18:18:23:628
-0.486,8.811,1.214,2.019,9.558,0.857,-2.053,-0.738,0.251,-0.31,0.884,-0.641,150848,2021-05-18 18:18:24:127
-3.266,8.605,-0.57,-1.38,9.706,-0.247,-2.131,-0.283,-0.612,0.121,1.158,-0.923,151348,2021-05-18 18:18:24:627
-2.512,10.69,2.614,-1.508,9.268,2.829,-0.93,1.441,-0.237,-0.153,-0.172,-1.23,151848,2021-05-18 18:18:25:127
-8.224,11.595,2.878,-3.33,8.637,3.238,-1.902,1.721,-0.931,-0.507,1.129,1.121,152349,2021-05-18 18:18:25:628
1.592,11.847,3.462,-0.42,8.912,4.071,-0.72,0.754,-0.134,-0.167,0.346,1.564,152848,2021-05-18 18:18:26:127
-1.238,8.114,2.349,-0.385,9.494,2.428,-0.475,-1.34,-0.373,0.103,-0.496,0.478,153349,2021-05-18 18:18:26:628
-0.34,10.3,1.31,0.458,9.682,1.487,-0.701,0.595,-0.056,0.271,-0.942,-0.268,153848,2021-05-18 18:18:27:127
-2.614,8.497,1.966,-2.419,9.376,1.553,-0.259,0.155,0.457,0.699,-0.764,-0.044,154348,2021-05-18 18:18:27:627
1.398,6.282,2.895,2.865,8.755,3.362,-0.229,-3.215,-1.049,-1.897,-0.17,1.326,154848,2021-05-18 18:18:28:127
3.812,3.27,6.732,7.034,3.601,5.807,-2.956,-0.257,0.956,0.009,1.497,0.06,155348,2021-05-18 18:18:28:627
-2.693,4.061,8.569,-1.526,5.354,8.073,-1.495,-0.739,-0.106,1.166,1.099,-0.371,155848,2021-05-18 18:18:29:127
-3.484,10.568,5.255,-2.996,6.857,6.338,-0.018,5.672,-1.497,-0.917,0.165,-0.366,156348,2021-05-18 18:18:29:627
-1.614,5.136,5.203,-3.233,7.191,5.832,-1.43,-1.166,0.607,0.959,0.248,0.392,156909,2021-05-18 18:18:30:188
-0.199,8.212,2.691,0.19,9.286,3.147,0.434,-0.152,-1.002,-0.448,-0.599,-0.09,157348,2021-05-18 18:18:30:627
0.371,8.186,3.428,1.424,8.815,4.055,-1.039,-0.728,-0.527,0.54,0.38,0.614,157848,2021-05-18 18:18:31:127
-0.723,8.447,4.961,0.311,8.542,4.807,-0.85,0.959,-0.206,-0.036,1.349,-0.436,158349,2021-05-18 18:18:31:628
-3.563,10.726,-0.057,-3.361,9.153,1.053,-0.191,1.601,-1.301,0.563,0.964,-0.086,158848,2021-05-18 18:18:32:127
-0.421,9.776,-2.514,0.113,9.424,-2.71,-1.434,-0.004,-0.884,-0.879,1.181,0.925,159349,2021-05-18 18:18:32:628
-0.728,7.827,1.008,-0.926,9.551,2.022,-1.904,-3.417,-0.691,0.339,-1.25,-2.553,159848,2021-05-18 18:18:33:127
2.837,13.513,0.589,-0.621,9.378,2.8,1.963,2.494,-1.222,0.617,2.253,4.515,160349,2021-05-18 18:18:33:628
-0.582,9.041,3.697,0.665,8.931,3.995,-1.215,0.107,-0.298,0.243,0.666,0.728,160849,2021-05-18 18:18:34:128
0.194,10.611,1.156,1.31,9.39,2.508,-1.116,1.221,-1.351,0.274,-0.71,1.243,161348,2021-05-18 18:18:34:627
0.69,11.744,3.479,3.212,9.037,2.045,-3.207,1.982,0.886,0.52,-0.659,-0.549,161848,2021-05-18 18:18:35:127
0.69,11.744,3.479,3.212,9.037,2.045,-3.207,1.982,0.886,0.52,-0.659,-0.549,161848,2021-05-18 18:18:35:127
0.69,11.744,3.479,3.212,9.037,2.045,-3.207,1.982,0.886,0.52,-0.659,-0.549,161848,2021-05-18 18:18:35:127
0.69,11.744,3.479,3.212,9.037,2.045,-3.207,1.982,0.886,0.52,-0.659,-0.549,161849,2021-05-18 18:18:35:128
0.69,11.744,3.479,3.212,9.037,2.045,-3.207,1.982,0.886,0.52,-0.659,-0.549,161849,2021-05-18 18:18:35:128
0.69,11.744,3.479,3.212,9.037,2.045,-3.207,1.982,0.886,0.52,-0.659,-0.549,161849,2021-05-18 18:18:35:128
0.69,11.744,3.479,3.212,9.037,2.045,-3.207,1.982,0.886,0.52,-0.659,-0.549,161849,2021-05-18 18:18:35:128
0.69,11.744,3.479,3.212,9.037,2.045,-3.207,1.982,0.886,0.52,-0.659,-0.549,161849,2021-05-18 18:18:35:128
0.69,11.744,3.479,3.212,9.037,2.045,-3.207,1.982,0.886,0.52,-0.659,-0.549,161849,2021-05-18 18:18:35:128
0.69,11.744,3.479,3.212,9.037,2.045,-3.207,1.982,0.886,0.52,-0.659,-0.549,161849,2021-05-18 18:18:35:128
0.69,11.744,3.479,3.212,9.037,2.045,-3.207,1.982,0.886,0.52,-0.659,-0.549,161861,2021-05-18 18:18:35:140
0.572,10.551,-0.321,1.295,9.696,0.693,-0.723,0.855,-1.014,-0.316,0.043,-0.021,162361,2021-05-18 18:18:35:640
-0.682,8.736,0.879,-0.407,9.598,1.971,0.664,2.59,-1.049,0.206,0.85,-1.008,162861,2021-05-18 18:18:36:140
-0.34,10.412,-3.8,-1.508,9.688,-0.205,2.708,-2.055,-2.321,0.053,0.009,-0.304,163361,2021-05-18 18:18:36:640
-0.34,10.412,-3.8,-1.508,9.688,-0.205,2.708,-2.055,-2.321,0.053,0.009,-0.304,163362,2021-05-18 18:18:36:641
-0.34,10.412,-3.8,-1.508,9.688,-0.205,2.708,-2.055,-2.321,0.053,0.009,-0.304,163362,2021-05-18 18:18:36:641
-0.34,10.412,-3.8,-1.508,9.688,-0.205,2.708,-2.055,-2.321,0.053,0.009,-0.304,163362,2021-05-18 18:18:36:641
-0.34,10.412,-3.8,-1.508,9.688,-0.205,2.708,-2.055,-2.321,0.053,0.009,-0.304,163362,2021-05-18 18:18:36:641
-0.34,10.412,-3.8,-1.508,9.688,-0.205,2.708,-2.055,-2.321,0.053,0.009,-0.304,163362,2021-05-18 18:18:36:641
-0.34,10.412,-3.8,-1.508,9.688,-0.205,2.708,-2.055,-2.321,0.053,0.009,-0.304,163362,2021-05-18 18:18:36:641
-0.34,10.412,-3.8,-1.508,9.688,-0.205,2.708,-2.055,-2.321,0.053,0.009,-0.304,163363,2021-05-18 18:18:36:642
-0.34,10.412,-3.8,-1.508,9.688,-0.205,2.708,-2.055,-2.321,0.053,0.009,-0.304,163363,2021-05-18 18:18:36:642
0.603,9.843,-4.635,-1.706,9.59,-1.134,-0.071,1.292,-2.987,0.253,0.142,-0.509,163520,2021-05-18 18:18:36:799
-3.218,7.149,-1.219,-1.923,9.586,-0.761,-1.295,-2.437,-0.458,0.445,-1.135,0.859,164080,2021-05-18 18:18:37:359
-1.64,8.157,-3.053,-1.225,9.529,-1.967,0.618,-0.916,0.151,-1.343,-2.541,1.783,164520,2021-05-18 18:18:37:799
-0.558,4.492,9.72,-0.857,6.989,6.826,0.299,-2.498,2.895,2.662,-1.83,-2.538,165020,2021-05-18 18:18:38:299
-2.425,8.013,2.361,-1.94,9.084,3.145,0.078,-0.74,-1.114,0.503,-0.601,0.384,165520,2021-05-18 18:18:38:799
1.149,10.513,0.692,1.785,9.6,0.904,-2.158,2.012,-0.68,0.606,-0.997,1.115,166020,2021-05-18 18:18:39:299
1.068,9.905,5.729,1.45,9.095,3.369,-3.147,-3.557,1.721,-1.145,-0.61,2.15,166519,2021-05-18 18:18:39:798
1.068,9.905,5.729,1.45,9.095,3.369,-3.147,-3.557,1.721,-1.145,-0.61,2.15,166521,2021-05-18 18:18:39:800
1.068,9.905,5.729,1.45,9.095,3.369,-3.147,-3.557,1.721,-1.145,-0.61,2.15,166522,2021-05-18 18:18:39:801
1.068,9.905,5.729,1.45,9.095,3.369,-3.147,-3.557,1.721,-1.145,-0.61,2.15,166522,2021-05-18 18:18:39:801
1.068,9.905,5.729,1.45,9.095,3.369,-3.147,-3.557,1.721,-1.145,-0.61,2.15,166523,2021-05-18 18:18:39:802
1.068,9.905,5.729,1.45,9.095,3.369,-3.147,-3.557,1.721,-1.145,-0.61,2.15,166523,2021-05-18 18:18:39:802
-0.053,5.265,6.239,1.45,9.095,3.369,-3.147,-3.557,1.721,-1.145,-0.61,2.15,166549,2021-05-18 18:18:39:828
3.666,6.764,5.576,5.495,6.88,4.319,-1.319,-0.116,1.258,-0.095,-1.806,0.882,167200,2021-05-18 18:18:40:479
4.175,6.764,5.576,5.495,6.88,4.319,-1.319,-0.116,1.258,-0.095,-1.806,0.882,167201,2021-05-18 18:18:40:480
4.175,6.764,5.576,5.495,6.88,4.319,-1.319,-0.116,1.258,-0.095,-1.806,0.882,167201,2021-05-18 18:18:40:480
-9.898,2.354,2.567,3.65,6.79,6.062,-12.706,-4.575,-3.78,0.547,0.434,0.406,167481,2021-05-18 18:18:40:760
-3.816,5.193,-0.115,-1.171,9.042,3.612,-2.645,-3.849,-3.727,-0.046,1.133,0.351,167981,2021-05-18 18:18:41:260
-4.796,2.428,-3.524,-7.713,5.737,-1.94,2.917,-3.309,-1.584,0.183,2.444,-1.081,168481,2021-05-18 18:18:41:760
-4.796,2.428,-3.524,-7.713,5.737,-1.94,2.917,-3.309,-1.584,0.183,2.444,-1.081,168481,2021-05-18 18:18:41:760
-2.076,9.67,-4.113,-5.503,7.151,-3.84,1.458,0.653,5.056,-1.093,-0.933,3.418,168660,2021-05-18 18:18:41:939
0.982,11.042,-6.445,-1.239,7.372,-6.348,2.042,1.791,-0.31,0.858,-1.137,0.896,169161,2021-05-18 18:18:42:440
4.367,-4.252,-7.75,-2.851,4.767,-8.082,-0.252,-1.159,-1.399,0.844,-1.047,-0.206,169661,2021-05-18 18:18:42:940
4.367,-4.252,-7.75,-2.851,4.767,-8.082,-0.252,-1.159,-1.399,0.844,-1.047,-0.206,169661,2021-05-18 18:18:42:940
4.367,-4.252,-7.75,-2.851,4.767,-8.082,-0.252,-1.159,-1.399,0.844,-1.047,-0.206,169662,2021-05-18 18:18:42:941
4.367,-4.252,-7.75,-2.851,4.767,-8.082,-0.252,-1.159,-1.399,0.844,-1.047,-0.206,169662,2021-05-18 18:18:42:941
4.367,-4.252,-7.75,-2.851,4.767,-8.082,-0.252,-1.159,-1.399,0.844,-1.047,-0.206,169662,2021-05-18 18:18:42:941
4.367,-4.252,-7.75,-2.851,4.767,-8.082,-0.252,-1.159,-1.399,0.844,-1.047,-0.206,169662,2021-05-18 18:18:42:941
4.367,-4.252,-7.75,-2.851,4.767,-8.082,-0.252,-1.159,-1.399,0.844,-1.047,-0.206,169663,2021-05-18 18:18:42:942
4.367,-4.252,-7.75,-2.851,4.767,-8.082,-0.252,-1.159,-1.399,0.844,-1.047,-0.206,169663,2021-05-18 18:18:42:942
4.367,-4.252,-7.75,-2.851,4.767,-8.082,-0.252,-1.159,-1.399,0.844,-1.047,-0.206,169663,2021-05-18 18:18:42:942
4.367,-4.252,-7.75,-2.851,4.767,-8.082,-0.252,-1.159,-1.399,0.844,-1.047,-0.206,169663,2021-05-18 18:18:42:942
4.367,-4.252,-7.75,-2.851,4.767,-8.082,-0.252,-1.159,-1.399,0.844,-1.047,-0.206,169664,2021-05-18 18:18:42:943
4.367,-4.252,-7.75,-2.851,4.767,-8.082,-0.252,-1.159,-1.399,0.844,-1.047,-0.206,169664,2021-05-18 18:18:42:943
0.077,1.109,-8.741,-1.256,5.558,-7.981,1.721,-6.513,0.502,-2.106,-1.408,0.097,169839,2021-05-18 18:18:43:118
1.669,7.041,-5.43,-0.812,8.48,-4.859,1.829,-2.839,-1.656,-0.557,1.338,0.368,170339,2021-05-18 18:18:43:618
11.179,1.554,-3.661,9.587,0.866,-1.874,0.161,-1.535,-2.385,-1.123,-0.04,-0.219,170839,2021-05-18 18:18:44:118
12.546,5.571,-2.033,8.649,3.801,-2.63,4.205,1.194,0.695,0.379,-0.339,-1.042,171339,2021-05-18 18:18:44:618
-6.304,3.936,-7.479,2.042,8.55,-4.348,-8.346,-4.614,-3.131,-1.194,0.06,1.418,171839,2021-05-18 18:18:45:118
-6.304,3.936,-7.479,2.042,8.55,-4.348,-8.346,-4.614,-3.131,-1.194,0.06,1.418,171840,2021-05-18 18:18:45:119
-6.304,3.936,-7.479,2.042,8.55,-4.348,-8.346,-4.614,-3.131,-1.194,0.06,1.418,171841,2021-05-18 18:18:45:120
-6.304,3.936,-7.479,2.042,8.55,-4.348,-8.346,-4.614,-3.131,-1.194,0.06,1.418,171841,2021-05-18 18:18:45:120
-6.304,3.936,-7.479,2.042,8.55,-4.348,-8.346,-4.614,-3.131,-1.194,0.06,1.418,171842,2021-05-18 18:18:45:121
-6.304,3.936,-7.479,2.042,8.55,-4.348,-8.346,-4.614,-3.131,-1.194,0.06,1.418,171842,2021-05-18 18:18:45:121
-6.304,3.936,-7.479,2.042,8.55,-4.348,-8.346,-4.614,-3.131,-1.194,0.06,1.418,171843,2021-05-18 18:18:45:122
-6.304,3.936,-7.479,2.042,8.55,-4.348,-8.346,-4.614,-3.131,-1.194,0.06,1.418,171843,2021-05-18 18:18:45:122
-6.304,3.936,-7.479,2.042,8.55,-4.348,-8.346,-4.614,-3.131,-1.194,0.06,1.418,171844,2021-05-18 18:18:45:123
-6.304,3.936,-7.479,2.042,8.55,-4.348,-8.346,-4.614,-3.131,-1.194,0.06,1.418,171844,2021-05-18 18:18:45:123
-8.432,4.82,-5.48,2.059,8.714,-3.999,-10.492,-3.895,-1.481,-1.068,0.412,2.123,171932,2021-05-18 18:18:45:211
-2.789,-4.118,-7.968,3.479,8.675,-2.968,-6.268,-12.793,-5.0,-4.175,-1.713,-3.158,172539,2021-05-18 18:18:45:818
-2.789,-4.118,-7.968,3.479,8.675,-2.968,-6.268,-12.793,-5.0,-4.175,-1.713,-3.158,172541,2021-05-18 18:18:45:820
-2.789,-4.118,-7.968,3.479,8.675,-2.968,-6.268,-12.793,-5.0,-4.175,-1.713,-3.158,172542,2021-05-18 18:18:45:821
-2.789,-4.118,-7.968,3.479,8.675,-2.968,-6.268,-12.793,-5.0,-4.175,-1.713,-3.158,172543,2021-05-18 18:18:45:822
-2.789,-4.118,-7.968,3.479,8.675,-2.968,-6.268,-12.793,-5.0,-4.175,-1.713,-3.158,172543,2021-05-18 18:18:45:822
-4.714,-2.37,-11.001,5.817,6.232,-4.847,-14.543,-8.315,-5.136,-0.116,2.049,2.358,172820,2021-05-18 18:18:46:099
5.092,4.554,-12.347,-4.721,-2.0,-8.36,6.371,7.622,-3.486,0.058,-4.707,1.645,173319,2021-05-18 18:18:46:598
-3.95,-4.657,-9.752,-6.013,3.151,-7.077,5.298,8.089,10.309,-2.544,6.037,0.247,173819,2021-05-18 18:18:47:098
0.953,7.707,4.575,-1.948,2.147,-9.368,2.9,5.56,13.944,-1.726,2.012,0.983,174320,2021-05-18 18:18:47:599
0.953,7.707,4.575,-1.948,2.147,-9.368,2.9,5.56,13.944,-1.726,2.012,0.983,174321,2021-05-18 18:18:47:600
0.953,7.707,4.575,-1.948,2.147,-9.368,2.9,5.56,13.944,-1.726,2.012,0.983,174321,2021-05-18 18:18:47:600
0.953,7.707,4.575,-1.948,2.147,-9.368,2.9,5.56,13.944,-1.726,2.012,0.983,174321,2021-05-18 18:18:47:600
0.953,7.707,4.575,-1.948,2.147,-9.368,2.9,5.56,13.944,-1.726,2.012,0.983,174322,2021-05-18 18:18:47:601
0.953,7.707,4.575,-1.948,2.147,-9.368,2.9,5.56,13.944,-1.726,2.012,0.983,174322,2021-05-18 18:18:47:601
0.953,7.707,4.575,-1.948,2.147,-9.368,2.9,5.56,13.944,-1.726,2.012,0.983,174322,2021-05-18 18:18:47:601
0.953,7.707,4.575,-1.948,2.147,-9.368,2.9,5.56,13.944,-1.726,2.012,0.983,174322,2021-05-18 18:18:47:601
0.953,7.707,4.575,-1.948,2.147,-9.368,2.9,5.56,13.944,-1.726,2.012,0.983,174322,2021-05-18 18:18:47:601
0.953,7.707,4.575,-1.948,2.147,-9.368,2.9,5.56,13.944,-1.726,2.012,0.983,174324,2021-05-18 18:18:47:603
0.953,7.707,4.575,-1.948,2.147,-9.368,2.9,5.56,13.944,-1.726,2.012,0.983,174326,2021-05-18 18:18:47:605
0.953,7.707,4.575,-1.948,2.147,-9.368,2.9,5.56,13.944,-1.726,2.012,0.983,174326,2021-05-18 18:18:47:605
0.953,7.707,4.575,-1.948,2.147,-9.368,2.9,5.56,13.944,-1.726,2.012,0.983,174327,2021-05-18 18:18:47:606
0.953,7.707,4.575,-1.948,2.147,-9.368,2.9,5.56,13.944,-1.726,2.012,0.983,174328,2021-05-18 18:18:47:607
0.953,7.707,4.575,-1.948,2.147,-9.368,2.9,5.56,13.944,-1.726,2.012,0.983,174328,2021-05-18 18:18:47:607
0.953,7.707,4.575,-1.948,2.147,-9.368,2.9,5.56,13.944,-1.726,2.012,0.983,174329,2021-05-18 18:18:47:608
0.953,7.707,4.575,-1.948,2.147,-9.368,2.9,5.56,13.944,-1.726,2.012,0.983,174329,2021-05-18 18:18:47:608
0.953,7.707,4.575,-1.948,2.147,-9.368,2.9,5.56,13.944,-1.726,2.012,0.983,174329,2021-05-18 18:18:47:608
0.953,7.707,4.575,-1.948,2.147,-9.368,2.9,5.56,13.944,-1.726,2.012,0.983,174329,2021-05-18 18:18:47:608
0.953,7.707,4.575,-1.948,2.147,-9.368,2.9,5.56,13.944,-1.726,2.012,0.983,174330,2021-05-18 18:18:47:609
0.953,7.707,4.575,-1.948,2.147,-9.368,2.9,5.56,13.944,-1.726,2.012,0.983,174330,2021-05-18 18:18:47:609
0.953,7.707,4.575,-1.948,2.147,-9.368,2.9,5.56,13.944,-1.726,2.012,0.983,174330,2021-05-18 18:18:47:609
0.953,7.707,4.575,-1.948,2.147,-9.368,2.9,5.56,13.944,-1.726,2.012,0.983,174330,2021-05-18 18:18:47:609
0.953,7.707,4.575,-1.948,2.147,-9.368,2.9,5.56,13.944,-1.726,2.012,0.983,174331,2021-05-18 18:18:47:610
0.953,7.707,4.575,-1.948,2.147,-9.368,2.9,5.56,13.944,-1.726,2.012,0.983,174331,2021-05-18 18:18:47:610
0.953,7.707,4.575,-1.948,2.147,-9.368,2.9,5.56,13.944,-1.726,2.012,0.983,174331,2021-05-18 18:18:47:610
0.953,7.707,4.575,-1.948,2.147,-9.368,2.9,5.56,13.944,-1.726,2.012,0.983,174331,2021-05-18 18:18:47:610
0.953,7.707,4.575,-1.948,2.147,-9.368,2.9,5.56,13.944,-1.726,2.012,0.983,174331,2021-05-18 18:18:47:610
0.953,7.707,4.575,-1.948,2.147,-9.368,2.9,5.56,13.944,-1.726,2.012,0.983,174332,2021-05-18 18:18:47:611
0.953,7.707,4.575,-1.948,2.147,-9.368,2.9,5.56,13.944,-1.726,2.012,0.983,174332,2021-05-18 18:18:47:611
0.953,7.707,4.575,-1.948,2.147,-9.368,2.9,5.56,13.944,-1.726,2.012,0.983,174332,2021-05-18 18:18:47:611
0.953,7.707,4.575,-1.948,2.147,-9.368,2.9,5.56,13.944,-1.726,2.012,0.983,174332,2021-05-18 18:18:47:611
0.953,7.707,4.575,-1.948,2.147,-9.368,2.9,5.56,13.944,-1.726,2.012,0.983,174333,2021-05-18 18:18:47:612
7.324,6.852,7.738,0.631,8.439,-4.956,-0.181,-1.464,10.767,-1.23,-3.439,5.079,174581,2021-05-18 18:18:47:860
8.739,2.406,-6.424,4.002,4.499,-7.74,3.367,-2.407,3.091,0.931,-1.531,-2.255,175082,2021-05-18 18:18:48:361
1.518,8.229,-5.794,-1.28,6.528,-7.206,2.798,1.701,1.412,-0.695,2.441,-2.86,175581,2021-05-18 18:18:48:860
-0.524,8.545,-8.859,0.405,7.129,-6.722,-0.998,0.398,-1.158,-0.946,-0.261,0.211,176081,2021-05-18 18:18:49:360
2.801,9.886,-5.365,1.799,7.837,-5.614,0.011,2.398,0.677,0.233,0.406,-0.026,176581,2021-05-18 18:18:49:860
3.85,11.042,-0.575,1.212,8.392,-4.927,1.618,3.842,2.119,-0.809,-0.194,-0.431,177081,2021-05-18 18:18:50:360
0.996,4.781,-6.225,-0.61,6.054,-7.691,-0.056,-4.141,-3.229,1.142,-1.562,-0.379,177582,2021-05-18 18:18:50:861
-3.977,3.474,-8.083,-3.579,3.462,-8.448,-2.479,0.239,0.628,0.363,0.291,-0.002,178082,2021-05-18 18:18:51:361
-3.239,1.147,-8.334,-1.564,2.037,-9.465,-0.711,-1.13,0.97,0.819,1.461,0.812,178582,2021-05-18 18:18:51:861
-1.841,1.03,-7.599,-3.836,1.981,-8.805,1.08,-2.031,-2.367,-0.57,-0.887,0.622,179081,2021-05-18 18:18:52:360
-2.179,0.378,-11.935,-0.777,1.644,-9.637,-0.524,-0.792,-0.908,-1.284,0.324,1.45,179582,2021-05-18 18:18:52:861
-8.049,1.52,-1.863,-8.851,3.075,-2.894,0.211,-0.6,1.051,-1.41,-0.869,3.395,180081,2021-05-18 18:18:53:360
-5.301,7.853,-1.152,-4.938,8.128,-2.393,0.119,-0.472,1.332,-0.505,-0.214,0.805,180581,2021-05-18 18:18:53:860
-3.06,9.471,-4.99,-3.487,8.972,-1.877,0.142,0.482,-2.728,-0.387,-2.621,-0.549,181081,2021-05-18 18:18:54:360
-3.879,6.893,1.36,-5.506,8.091,0.628,1.136,-1.296,0.99,0.162,-0.113,-0.781,181581,2021-05-18 18:18:54:860
-5.535,7.319,-0.39,-6.168,7.597,-0.644,-0.062,-0.798,0.009,0.029,0.101,0.275,182082,2021-05-18 18:18:55:361
-7.681,6.393,-5.804,-5.774,7.339,-2.996,-1.907,-0.946,-2.808,-0.817,0.048,-0.062,182680,2021-05-18 18:18:55:959
-6.797,3.926,-2.066,-7.035,6.068,-3.14,-1.062,-2.276,0.568,0.549,2.524,0.208,183082,2021-05-18 18:18:56:361
-5.14,8.559,-5.693,-4.093,7.957,-4.013,-0.847,0.328,-1.209,-0.582,0.117,0.751,183581,2021-05-18 18:18:56:860
-4.944,8.145,-1.298,-5.224,8.146,-1.592,0.512,-0.103,1.001,0.018,-0.132,-0.045,184081,2021-05-18 18:18:57:360
-7.798,5.509,-2.66,-5.306,7.868,-2.472,0.405,-0.785,0.946,0.932,-0.776,-0.387,184581,2021-05-18 18:18:57:860
-5.507,6.452,-4.377,-5.694,7.295,-3.246,0.157,-0.9,-1.21,-0.37,0.59,-0.502,185081,2021-05-18 18:18:58:360
-10.822,8.516,-3.967,-6.221,7.148,-2.525,-0.017,-0.2,-0.855,-1.153,-1.386,-0.566,185581,2021-05-18 18:18:58:860
-3.527,5.784,3.417,-4.415,8.195,3.085,0.332,-1.791,-0.66,-0.453,-4.012,0.431,186081,2021-05-18 18:18:59:360
2.842,7.623,7.614,2.003,7.997,5.311,-0.526,-1.256,1.029,1.863,-0.313,-0.642,186582,2021-05-18 18:18:59:861
4.195,7.594,1.946,3.241,8.83,2.775,0.953,-1.235,-0.828,-0.429,-0.558,0.235,187081,2021-05-18 18:19:00:360
1.326,8.633,3.227,2.584,8.468,4.216,-0.78,-0.557,-0.48,-0.983,0.169,0.133,187581,2021-05-18 18:19:00:860
2.732,7.195,5.191,2.641,7.749,5.398,0.003,-1.862,-0.203,0.666,-1.755,-1.255,188081,2021-05-18 18:19:01:360
-1.168,8.284,0.63,-0.365,9.745,1.033,-1.069,-1.407,-0.895,0.528,-0.673,-0.294,188581,2021-05-18 18:19:01:860
0.299,8.43,0.972,1.064,9.739,0.44,-0.536,-2.011,-0.498,0.184,-0.875,0.655,189081,2021-05-18 18:19:02:360
-0.611,10.075,-2.363,0.146,9.702,-1.422,-0.704,0.329,-1.003,-0.342,-0.644,0.696,189581,2021-05-18 18:19:02:860
-2.2,8.492,3.515,-1.387,9.28,2.851,-0.571,-0.539,0.543,-1.002,-1.792,-1.092,190081,2021-05-18 18:19:03:360
-1.712,8.681,2.576,-1.347,9.574,1.644,-0.365,-0.892,0.932,1.076,-1.368,-0.05,190581,2021-05-18 18:19:03:860
0.407,8.89,-2.722,0.374,9.699,-1.403,0.033,-0.809,-1.319,-0.96,0.567,-0.381,191081,2021-05-18 18:19:04:360
1.784,8.085,-3.304,2.937,9.326,-0.755,-1.087,-3.163,-2.316,0.464,1.553,1.874,191581,2021-05-18 18:19:04:860
1.784,8.085,-3.304,2.937,9.326,-0.755,-1.087,-3.163,-2.316,0.464,1.553,1.874,191582,2021-05-18 18:19:04:861
1.784,8.085,-3.304,2.937,9.326,-0.755,-1.087,-3.163,-2.316,0.464,1.553,1.874,191582,2021-05-18 18:19:04:861
6.613,10.752,-2.686,4.615,8.487,-1.684,0.611,1.988,-0.908,-1.016,1.259,0.097,192081,2021-05-18 18:19:05:360
7.506,5.679,3.072,7.285,6.351,1.663,0.396,-0.409,0.147,-0.955,1.728,0.187,192581,2021-05-18 18:19:05:860
0.941,2.447,9.471,2.304,3.05,9.031,-1.059,-0.488,0.33,-0.337,1.241,0.258,193082,2021-05-18 18:19:06:361
0.524,1.19,9.512,0.572,1.449,9.682,-0.181,0.798,0.129,0.025,0.733,0.155,193581,2021-05-18 18:19:06:860
1.166,2.6,9.316,1.305,2.627,9.358,-0.139,-0.027,-0.042,1.07,0.461,1.425,194081,2021-05-18 18:19:07:360
0.182,4.53,10.281,0.24,3.122,9.293,-0.058,1.408,0.987,0.168,-0.167,0.461,194291,2021-05-18 18:19:07:570
-2.162,1.963,9.337,0.726,5.415,8.144,-2.888,-3.452,1.194,2.506,-1.159,-2.081,194910,2021-05-18 18:19:08:189
-2.162,1.963,9.337,0.726,5.415,8.144,-2.888,-3.452,1.194,2.506,-1.159,-2.081,194913,2021-05-18 18:19:08:192
-2.162,1.963,9.337,0.726,5.415,8.144,-2.888,-3.452,1.194,2.506,-1.159,-2.081,194913,2021-05-18 18:19:08:192
-2.162,1.963,9.337,0.726,5.415,8.144,-2.888,-3.452,1.194,2.506,-1.159,-2.081,194914,2021-05-18 18:19:08:193
-2.162,1.963,9.337,0.726,5.415,8.144,-2.888,-3.452,1.194,2.506,-1.159,-2.081,194915,2021-05-18 18:19:08:194
-2.162,1.963,9.337,0.726,5.415,8.144,-2.888,-3.452,1.194,2.506,-1.159,-2.081,194916,2021-05-18 18:19:08:195
-2.162,1.963,9.337,0.726,5.415,8.144,-2.888,-3.452,1.194,2.506,-1.159,-2.081,194916,2021-05-18 18:19:08:195
-2.162,1.963,9.337,0.726,5.415,8.144,-2.888,-3.452,1.194,2.506,-1.159,-2.081,194916,2021-05-18 18:19:08:195
-2.162,1.963,9.337,0.726,5.415,8.144,-2.888,-3.452,1.194,2.506,-1.159,-2.081,194916,2021-05-18 18:19:08:195
-2.162,1.963,9.337,0.726,5.415,8.144,-2.888,-3.452,1.194,2.506,-1.159,-2.081,194917,2021-05-18 18:19:08:196
-2.162,1.963,9.337,0.726,5.415,8.144,-2.888,-3.452,1.194,2.506,-1.159,-2.081,194917,2021-05-18 18:19:08:196
-2.162,1.963,9.337,0.726,5.415,8.144,-2.888,-3.452,1.194,2.506,-1.159,-2.081,194917,2021-05-18 18:19:08:196
-2.162,1.963,9.337,0.726,5.415,8.144,-2.888,-3.452,1.194,2.506,-1.159,-2.081,194917,2021-05-18 18:19:08:196
-2.162,1.963,9.337,0.726,5.415,8.144,-2.888,-3.452,1.194,2.506,-1.159,-2.081,194918,2021-05-18 18:19:08:197
-2.162,1.963,9.337,0.726,5.415,8.144,-2.888,-3.452,1.194,2.506,-1.159,-2.081,194918,2021-05-18 18:19:08:197
-2.162,1.963,9.337,0.726,5.415,8.144,-2.888,-3.452,1.194,2.506,-1.159,-2.081,194918,2021-05-18 18:19:08:197
-2.162,1.963,9.337,0.726,5.415,8.144,-2.888,-3.452,1.194,2.506,-1.159,-2.081,194918,2021-05-18 18:19:08:197
-2.162,1.963,9.337,0.726,5.415,8.144,-2.888,-3.452,1.194,2.506,-1.159,-2.081,194918,2021-05-18 18:19:08:197
-2.162,1.963,9.337,0.726,5.415,8.144,-2.888,-3.452,1.194,2.506,-1.159,-2.081,194919,2021-05-18 18:19:08:198
-2.162,1.963,9.337,0.726,5.415,8.144,-2.888,-3.452,1.194,2.506,-1.159,-2.081,194919,2021-05-18 18:19:08:198
-2.162,1.963,9.337,0.726,5.415,8.144,-2.888,-3.452,1.194,2.506,-1.159,-2.081,194919,2021-05-18 18:19:08:198
-3.407,10.18,4.635,2.122,8.767,3.848,-4.546,-0.278,-0.027,-0.274,-3.497,0.064,195189,2021-05-18 18:19:08:468
1.949,3.742,7.058,1.495,7.187,6.503,-2.61,-7.713,-1.59,-0.037,2.541,-0.756,195791,2021-05-18 18:19:09:070
1.949,3.742,7.058,1.495,7.187,6.503,-2.61,-7.713,-1.59,0.179,-2.081,2.958,195792,2021-05-18 18:19:09:071
1.949,3.742,7.058,1.495,7.187,6.503,-2.61,-7.713,-1.59,0.179,-2.081,2.958,195792,2021-05-18 18:19:09:071
1.949,3.742,7.058,1.495,7.187,6.503,-0.995,-1.64,2.16,0.179,-2.081,2.958,195793,2021-05-18 18:19:09:072
2.715,5.078,8.265,3.71,6.718,6.105,-0.995,-1.64,2.16,0.179,-2.081,2.958,195793,2021-05-18 18:19:09:072
2.715,5.078,8.265,3.71,6.718,6.105,-0.995,-1.64,2.16,0.179,-2.081,2.958,195793,2021-05-18 18:19:09:072
2.715,5.078,8.265,3.71,6.718,6.105,-0.995,-1.64,2.16,0.179,-2.081,2.958,195796,2021-05-18 18:19:09:075
2.715,5.078,8.265,3.71,6.718,6.105,-0.995,-1.64,2.16,0.179,-2.081,2.958,195796,2021-05-18 18:19:09:075
2.715,5.078,8.265,3.71,6.718,6.105,-0.995,-1.64,2.16,0.179,-2.081,2.958,195797,2021-05-18 18:19:09:076
2.715,5.078,8.265,3.71,6.718,6.105,-0.995,-1.64,2.16,0.179,-2.081,2.958,195797,2021-05-18 18:19:09:076
2.715,5.078,8.265,3.71,6.718,6.105,-0.995,-1.64,2.16,0.179,-2.081,2.958,195797,2021-05-18 18:19:09:076
-0.338,10.238,1.425,3.491,7.991,4.487,-3.829,2.247,-3.062,0.035,-0.134,0.104,196070,2021-05-18 18:19:09:349
0.352,9.182,1.52,2.358,8.964,3.203,-2.566,0.773,-1.585,-0.098,0.357,-0.15,196679,2021-05-18 18:19:09:958
0.871,10.18,1.008,1.322,9.254,2.965,-0.45,0.926,-1.957,-0.101,0.341,-0.328,196683,2021-05-18 18:19:09:962
0.871,10.18,1.008,1.322,9.254,2.965,-0.45,0.926,-1.957,-0.101,0.341,-0.328,196684,2021-05-18 18:19:09:963
0.871,10.18,1.008,1.322,9.254,2.965,-0.45,0.926,-1.957,-0.101,0.341,-0.328,196685,2021-05-18 18:19:09:964
0.871,10.18,1.008,1.322,9.254,2.965,-0.45,0.926,-1.957,-0.101,0.341,-0.328,196685,2021-05-18 18:19:09:964
0.871,10.18,1.008,1.322,9.254,2.965,-0.45,0.926,-1.957,-0.101,0.341,-0.328,196685,2021-05-18 18:19:09:964
0.871,10.18,1.008,1.322,9.254,2.965,-0.45,0.926,-1.957,-0.101,0.341,-0.328,196686,2021-05-18 18:19:09:965
0.871,10.18,1.008,1.322,9.254,2.965,-0.45,0.926,-1.957,-0.101,0.341,-0.328,196686,2021-05-18 18:19:09:965
0.871,10.18,1.008,1.322,9.254,2.965,-0.45,0.926,-1.957,-0.101,0.341,-0.328,196686,2021-05-18 18:19:09:965
0.871,10.18,1.008,1.322,9.254,2.965,-0.45,0.926,-1.957,-0.101,0.341,-0.328,196687,2021-05-18 18:19:09:966
0.871,10.18,1.008,1.322,9.254,2.965,-0.45,0.926,-1.957,-0.101,0.341,-0.328,196687,2021-05-18 18:19:09:966
0.871,10.18,1.008,1.322,9.254,2.965,-0.45,0.926,-1.957,-0.101,0.341,-0.328,196688,2021-05-18 18:19:09:967
0.871,10.18,1.008,1.322,9.254,2.965,-0.45,0.926,-1.957,-0.101,0.341,-0.328,196695,2021-05-18 18:19:09:974
0.871,10.18,1.008,1.322,9.254,2.965,-0.45,0.926,-1.957,-0.101,0.341,-0.328,196696,2021-05-18 18:19:09:975
0.871,10.18,1.008,1.322,9.254,2.965,-0.45,0.926,-1.957,-0.101,0.341,-0.328,196696,2021-05-18 18:19:09:975
0.871,10.18,1.008,1.322,9.254,2.965,-0.45,0.926,-1.957,-0.101,0.341,-0.328,196698,2021-05-18 18:19:09:977
0.871,10.18,1.008,1.322,9.254,2.965,-0.45,0.926,-1.957,-0.101,0.341,-0.328,196698,2021-05-18 18:19:09:977
0.871,10.18,1.008,1.322,9.254,2.965,-0.45,0.926,-1.957,-0.101,0.341,-0.328,196699,2021-05-18 18:19:09:978
0.871,10.18,1.008,1.322,9.254,2.965,-0.45,0.926,-1.957,-0.101,0.341,-0.328,196699,2021-05-18 18:19:09:978
0.871,10.18,1.008,1.322,9.254,2.965,-0.45,0.926,-1.957,-0.101,0.341,-0.328,196699,2021-05-18 18:19:09:978
0.871,10.18,1.008,1.322,9.254,2.965,-0.45,0.926,-1.957,-0.101,0.341,-0.328,196700,2021-05-18 18:19:09:979
0.871,10.18,1.008,1.322,9.254,2.965,-0.45,0.926,-1.957,-0.101,0.341,-0.328,196700,2021-05-18 18:19:09:979
0.871,10.18,1.008,1.322,9.254,2.965,-0.45,0.926,-1.957,-0.101,0.341,-0.328,196700,2021-05-18 18:19:09:979
0.871,10.18,1.008,1.322,9.254,2.965,-0.45,0.926,-1.957,-0.101,0.341,-0.328,196700,2021-05-18 18:19:09:979
0.871,10.18,1.008,1.322,9.254,2.965,-0.45,0.926,-1.957,-0.101,0.341,-0.328,196707,2021-05-18 18:19:09:986
0.871,10.18,1.008,1.322,9.254,2.965,-0.45,0.926,-1.957,-0.101,0.341,-0.328,196707,2021-05-18 18:19:09:986
0.871,10.18,1.008,1.322,9.254,2.965,-0.45,0.926,-1.957,-0.101,0.341,-0.328,196708,2021-05-18 18:19:09:987
0.871,10.18,1.008,1.322,9.254,2.965,-0.45,0.926,-1.957,-0.101,0.341,-0.328,196708,2021-05-18 18:19:09:987
0.871,10.18,1.008,1.322,9.254,2.965,-0.45,0.926,-1.957,-0.101,0.341,-0.328,196708,2021-05-18 18:19:09:987
0.871,10.18,1.008,1.322,9.254,2.965,-0.45,0.926,-1.957,-0.101,0.341,-0.328,196709,2021-05-18 18:19:09:988
0.871,10.18,1.008,1.322,9.254,2.965,-0.45,0.926,-1.957,-0.101,0.341,-0.328,196709,2021-05-18 18:19:09:988
0.0,9.895,0.611,0.045,9.314,3.07,-0.045,0.582,-2.46,-0.039,-0.443,-0.575,196951,2021-05-18 18:19:10:230
0.072,10.209,1.298,0.935,9.639,1.547,-0.925,0.3,-0.529,0.125,-0.111,0.326,197451,2021-05-18 18:19:10:730
0.354,9.244,0.421,0.81,9.734,0.869,-0.638,-0.196,0.01,0.337,-0.723,0.693,197951,2021-05-18 18:19:11:230
1.106,9.649,0.939,1.667,9.655,0.407,-0.63,0.13,-0.125,0.178,0.248,-0.091,198451,2021-05-18 18:19:11:730
0.491,8.689,-0.941,0.729,9.779,-0.045,-0.325,-0.669,-0.824,0.168,0.069,-0.179,198951,2021-05-18 18:19:12:230
-0.168,9.665,-0.797,0.478,9.795,-0.024,-0.261,-0.099,-0.58,0.03,0.869,-0.211,199451,2021-05-18 18:19:12:730
-1.087,9.764,0.589,0.134,9.706,1.397,-1.364,0.002,-0.527,-0.655,1.147,0.247,199951,2021-05-18 18:19:13:230
-0.517,9.855,2.241,0.488,9.491,2.419,-1.248,2.149,-1.31,0.024,0.189,0.31,200451,2021-05-18 18:19:13:730
0.141,10.015,1.824,0.464,9.573,2.078,-0.717,0.398,-0.264,0.138,0.084,0.479,200952,2021-05-18 18:19:14:231
-1.245,9.328,-0.184,-0.245,9.749,1.035,-0.703,-0.021,-1.176,-0.556,-0.811,0.189,201451,2021-05-18 18:19:14:730
-0.39,8.624,1.535,0.437,9.665,1.6,-0.91,0.978,-0.714,-0.12,-0.317,0.48,201951,2021-05-18 18:19:15:230
-0.905,8.511,0.359,0.517,9.786,0.364,-1.112,-1.097,-0.46,0.655,-1.379,0.858,202451,2021-05-18 18:19:15:730
-0.359,8.926,-0.481,1.284,9.719,-0.245,-0.604,-0.247,0.271,-0.271,-0.856,0.614,202951,2021-05-18 18:19:16:230
0.002,9.725,0.632,1.5,9.643,0.962,-1.832,-0.48,-0.714,0.134,-0.054,0.348,203451,2021-05-18 18:19:16:730
0.994,10.384,-1.322,1.331,9.707,-0.408,-0.698,0.745,-0.683,0.676,-0.096,1.371,203999,2021-05-18 18:19:17:278
2.071,10.151,-2.545,2.277,9.297,-2.133,-0.716,1.07,-0.407,-1.123,-0.426,-0.326,204451,2021-05-18 18:19:17:730
-0.771,8.528,1.271,0.603,9.619,1.812,-1.311,-0.669,-0.569,-0.493,0.431,-0.026,204951,2021-05-18 18:19:18:230
0.821,9.206,0.347,2.543,9.471,-0.016,-1.722,-0.266,0.363,1.18,-1.312,0.705,205451,2021-05-18 18:19:18:730
-0.204,9.433,-1.049,-0.074,9.745,-1.098,-0.247,-0.659,-0.243,-0.213,-0.373,0.036,205951,2021-05-18 18:19:19:230
-0.086,10.048,-1.628,1.069,9.718,-0.761,-1.155,0.33,-0.867,-0.126,-0.285,0.786,206451,2021-05-18 18:19:19:730
0.263,9.622,-2.904,1.319,9.528,-1.91,-1.92,0.015,-0.939,-0.151,1.124,-0.183,206951,2021-05-18 18:19:20:230
2.066,10.74,-2.562,1.125,9.663,-1.234,0.158,0.28,-1.103,-0.219,0.808,0.131,207451,2021-05-18 18:19:20:730
-0.096,10.197,-0.412,1.219,9.729,0.188,-1.315,0.468,-0.6,1.244,0.337,0.023,207951,2021-05-18 18:19:21:230
-0.096,10.197,-0.412,1.219,9.729,0.188,-1.315,0.468,-0.6,1.244,0.337,0.023,207951,2021-05-18 18:19:21:230
-0.096,10.197,-0.412,1.219,9.729,0.188,-1.315,0.468,-0.6,1.244,0.337,0.023,207952,2021-05-18 18:19:21:231
-0.096,10.197,-0.412,1.219,9.729,0.188,-1.315,0.468,-0.6,1.244,0.337,0.023,207952,2021-05-18 18:19:21:231
-0.096,10.197,-0.412,1.219,9.729,0.188,-1.315,0.468,-0.6,1.244,0.337,0.023,207952,2021-05-18 18:19:21:231
-0.096,10.197,-0.412,1.219,9.729,0.188,-1.315,0.468,-0.6,1.244,0.337,0.023,207952,2021-05-18 18:19:21:231
-0.096,10.197,-0.412,1.219,9.729,0.188,-1.315,0.468,-0.6,1.244,0.337,0.023,207952,2021-05-18 18:19:21:231
-0.096,10.197,-0.412,1.219,9.729,0.188,-1.315,0.468,-0.6,1.244,0.337,0.023,207952,2021-05-18 18:19:21:231
-0.096,10.197,-0.412,1.219,9.729,0.188,-1.315,0.468,-0.6,1.244,0.337,0.023,207952,2021-05-18 18:19:21:231
0.481,10.001,-2.009,2.454,9.463,-0.769,-1.973,0.537,-1.239,1.025,0.112,0.817,207953,2021-05-18 18:19:21:232
0.481,10.001,-2.009,2.454,9.463,-0.769,-1.973,0.537,-1.239,1.025,0.112,0.817,207953,2021-05-18 18:19:21:232
0.481,10.001,-2.009,2.454,9.463,-0.769,-1.973,0.537,-1.239,1.025,0.112,0.817,207953,2021-05-18 18:19:21:232
0.481,10.001,-2.009,2.454,9.463,-0.769,-1.973,0.537,-1.239,1.025,0.112,0.817,207953,2021-05-18 18:19:21:232
0.481,10.001,-2.009,2.454,9.463,-0.769,-1.973,0.537,-1.239,1.025,0.112,0.817,207953,2021-05-18 18:19:21:232
0.481,10.001,-2.009,2.454,9.463,-0.769,-1.973,0.537,-1.239,1.025,0.112,0.817,207953,2021-05-18 18:19:21:232
0.481,10.001,-2.009,2.454,9.463,-0.769,-1.973,0.537,-1.239,1.025,0.112,0.817,207953,2021-05-18 18:19:21:232
0.481,10.001,-2.009,2.454,9.463,-0.769,-1.973,0.537,-1.239,1.025,0.112,0.817,207954,2021-05-18 18:19:21:233
0.481,10.001,-2.009,2.454,9.463,-0.769,-1.973,0.537,-1.239,1.025,0.112,0.817,207954,2021-05-18 18:19:21:233
0.481,10.001,-2.009,2.454,9.463,-0.769,-1.973,0.537,-1.239,1.025,0.112,0.817,207954,2021-05-18 18:19:21:233
0.481,10.001,-2.009,2.454,9.463,-0.769,-1.973,0.537,-1.239,1.025,0.112,0.817,207954,2021-05-18 18:19:21:233
0.852,9.919,-1.736,2.655,9.336,-1.4,-1.753,0.951,-0.644,0.219,-0.221,0.23,208111,2021-05-18 18:19:21:390
0.539,9.029,1.587,2.021,9.513,-1.257,-1.482,-0.485,2.844,0.19,0.272,0.307,208770,2021-05-18 18:19:22:049
0.539,9.029,1.587,2.021,9.513,-1.257,-1.482,-0.485,2.844,0.19,0.272,0.307,208771,2021-05-18 18:19:22:050
0.539,9.029,1.587,2.021,9.513,-1.257,-1.482,-0.485,2.844,0.19,0.272,0.307,208771,2021-05-18 18:19:22:050
0.539,9.029,1.587,2.021,9.513,-1.257,-1.482,-0.485,2.844,0.19,0.272,0.307,208772,2021-05-18 18:19:22:051
0.539,9.029,1.587,2.021,9.513,-1.257,-1.482,-0.485,2.844,0.19,0.272,0.307,208773,2021-05-18 18:19:22:052
0.539,9.029,1.587,2.021,9.513,-1.257,-1.482,-0.485,2.844,0.19,0.272,0.307,208773,2021-05-18 18:19:22:052
0.539,9.029,1.587,2.021,9.513,-1.257,-1.482,-0.485,2.844,0.19,0.272,0.307,208773,2021-05-18 18:19:22:052
0.539,9.029,1.587,2.021,9.513,-1.257,-1.482,-0.485,2.844,0.19,0.272,0.307,208774,2021-05-18 18:19:22:053
0.539,9.029,1.587,2.021,9.513,-1.257,-1.482,-0.485,2.844,0.19,0.272,0.307,208774,2021-05-18 18:19:22:053
1.381,8.997,1.496,1.108,9.733,-0.462,-0.083,0.129,1.439,-0.382,-1.497,-0.512,209051,2021-05-18 18:19:22:330
0.409,8.988,0.39,0.986,9.753,-0.284,-0.229,-0.851,0.751,0.797,-0.853,0.556,209650,2021-05-18 18:19:22:929
0.522,9.349,-0.735,1.235,9.696,-0.796,-0.713,-0.347,0.061,0.812,-0.891,0.5,209651,2021-05-18 18:19:22:930
0.522,9.349,-0.735,1.235,9.696,-0.796,-0.713,-0.347,0.061,0.812,-0.891,0.5,209651,2021-05-18 18:19:22:930
0.522,9.349,-0.735,1.235,9.696,-0.796,-0.713,-0.347,0.061,0.812,-0.891,0.5,209652,2021-05-18 18:19:22:931
0.522,9.349,-0.735,1.235,9.696,-0.796,-0.713,-0.347,0.061,0.812,-0.891,0.5,209652,2021-05-18 18:19:22:931
0.522,9.349,-0.735,1.235,9.696,-0.796,-0.713,-0.347,0.061,0.812,-0.891,0.5,209653,2021-05-18 18:19:22:932
0.522,9.349,-0.735,1.235,9.696,-0.796,-0.713,-0.347,0.061,0.812,-0.891,0.5,209653,2021-05-18 18:19:22:932
0.522,9.349,-0.735,1.235,9.696,-0.796,-0.713,-0.347,0.061,0.812,-0.891,0.5,209654,2021-05-18 18:19:22:933
0.522,9.349,-0.735,1.235,9.696,-0.796,-0.713,-0.347,0.061,0.812,-0.891,0.5,209654,2021-05-18 18:19:22:933
0.522,9.349,-0.735,1.235,9.696,-0.796,-0.713,-0.347,0.061,0.812,-0.891,0.5,209655,2021-05-18 18:19:22:934
0.522,9.349,-0.735,1.235,9.696,-0.796,-0.713,-0.347,0.061,0.812,-0.891,0.5,209655,2021-05-18 18:19:22:934
0.522,9.349,-0.735,1.235,9.696,-0.796,-0.713,-0.347,0.061,0.812,-0.891,0.5,209656,2021-05-18 18:19:22:935
0.522,9.349,-0.735,1.235,9.696,-0.796,-0.713,-0.347,0.061,0.812,-0.891,0.5,209656,2021-05-18 18:19:22:935
0.522,9.349,-0.735,1.235,9.696,-0.796,-0.713,-0.347,0.061,0.812,-0.891,0.5,209656,2021-05-18 18:19:22:935
0.522,9.349,-0.735,1.235,9.696,-0.796,-0.713,-0.347,0.061,0.812,-0.891,0.5,209657,2021-05-18 18:19:22:936
0.522,9.349,-0.735,1.235,9.696,-0.796,-0.713,-0.347,0.061,0.812,-0.891,0.5,209659,2021-05-18 18:19:22:938
0.522,9.349,-0.735,1.235,9.696,-0.796,-0.713,-0.347,0.061,0.812,-0.891,0.5,209659,2021-05-18 18:19:22:938
0.522,9.349,-0.735,1.235,9.696,-0.796,-0.713,-0.347,0.061,0.812,-0.891,0.5,209659,2021-05-18 18:19:22:938
0.522,9.349,-0.735,1.235,9.696,-0.796,-0.713,-0.347,0.061,0.812,-0.891,0.5,209660,2021-05-18 18:19:22:939
0.522,9.349,-0.735,1.235,9.696,-0.796,-0.713,-0.347,0.061,0.812,-0.891,0.5,209660,2021-05-18 18:19:22:939
0.522,9.349,-0.735,1.235,9.696,-0.796,-0.713,-0.347,0.061,0.812,-0.891,0.5,209660,2021-05-18 18:19:22:939
0.522,9.349,-0.735,1.235,9.696,-0.796,-0.713,-0.347,0.061,0.812,-0.891,0.5,209660,2021-05-18 18:19:22:939
0.522,9.349,-0.735,1.235,9.696,-0.796,-0.713,-0.347,0.061,0.812,-0.891,0.5,209661,2021-05-18 18:19:22:940
0.522,9.349,-0.735,1.235,9.696,-0.796,-0.713,-0.347,0.061,0.812,-0.891,0.5,209661,2021-05-18 18:19:22:940
0.522,9.349,-0.735,1.235,9.696,-0.796,-0.713,-0.347,0.061,0.812,-0.891,0.5,209661,2021-05-18 18:19:22:940
0.522,9.349,-0.735,1.235,9.696,-0.796,-0.713,-0.347,0.061,0.812,-0.891,0.5,209661,2021-05-18 18:19:22:940
0.522,9.349,-0.735,1.235,9.696,-0.796,-0.713,-0.347,0.061,0.812,-0.891,0.5,209661,2021-05-18 18:19:22:940
0.522,9.349,-0.735,1.235,9.696,-0.796,-0.713,-0.347,0.061,0.812,-0.891,0.5,209662,2021-05-18 18:19:22:941
0.522,9.349,-0.735,1.235,9.696,-0.796,-0.713,-0.347,0.061,0.812,-0.891,0.5,209662,2021-05-18 18:19:22:941
0.242,8.265,-0.711,0.671,9.784,0.053,-0.219,-1.269,-0.598,-0.811,-0.219,-0.127,209931,2021-05-18 18:19:23:210
-0.457,8.277,3.227,1.431,9.579,1.539,-1.888,-1.302,1.688,-0.005,-0.387,0.3,210559,2021-05-18 18:19:23:838
-0.457,8.277,3.227,1.431,9.579,1.539,-1.888,-1.302,1.688,-0.005,-0.387,0.3,210560,2021-05-18 18:19:23:839
-0.457,8.277,3.227,1.431,9.579,1.539,-1.888,-1.302,1.688,-0.005,-0.387,0.3,210560,2021-05-18 18:19:23:839
-0.457,8.277,3.227,1.431,9.579,1.539,-1.888,-1.302,1.688,-0.005,-0.387,0.3,210561,2021-05-18 18:19:23:840
-0.457,8.277,3.227,1.431,9.579,1.539,-1.888,-1.302,1.688,-0.005,-0.387,0.3,210561,2021-05-18 18:19:23:840
-0.457,8.277,3.227,1.431,9.579,1.539,-1.888,-1.302,1.688,-0.005,-0.387,0.3,210562,2021-05-18 18:19:23:841
-0.457,8.277,3.227,1.431,9.579,1.539,-1.888,-1.302,1.688,-0.005,-0.387,0.3,210562,2021-05-18 18:19:23:841
-0.457,8.277,3.227,1.431,9.579,1.539,-1.888,-1.302,1.688,-0.005,-0.387,0.3,210563,2021-05-18 18:19:23:842
-0.457,8.277,3.227,1.431,9.579,1.539,-1.888,-1.302,1.688,-0.005,-0.387,0.3,210563,2021-05-18 18:19:23:842
0.117,10.829,2.179,1.838,9.548,1.273,-1.72,1.281,0.906,0.01,0.225,-0.167,210831,2021-05-18 18:19:24:110
-0.936,9.076,3.242,0.196,9.438,2.657,-1.205,-0.207,0.855,0.238,-0.192,-0.313,211430,2021-05-18 18:19:24:709
-0.936,9.076,3.242,0.196,9.438,2.657,-1.205,-0.207,0.855,0.238,-0.192,-0.313,211431,2021-05-18 18:19:24:710
-0.936,9.076,3.242,0.196,9.438,2.657,-1.205,-0.207,0.855,0.238,-0.192,-0.313,211431,2021-05-18 18:19:24:710
-0.67,9.208,4.08,-0.005,9.453,2.611,-0.665,-0.245,1.469,0.177,0.13,0.037,211432,2021-05-18 18:19:24:711
-0.67,9.208,4.08,-0.005,9.453,2.611,-0.665,-0.245,1.469,0.177,0.13,0.037,211433,2021-05-18 18:19:24:712
-0.67,9.208,4.08,-0.005,9.453,2.611,-0.665,-0.245,1.469,0.177,0.13,0.037,211433,2021-05-18 18:19:24:712
-0.67,9.208,4.08,-0.005,9.453,2.611,-0.665,-0.245,1.469,0.177,0.13,0.037,211434,2021-05-18 18:19:24:713
-0.67,9.208,4.08,-0.005,9.453,2.611,-0.665,-0.245,1.469,0.177,0.13,0.037,211434,2021-05-18 18:19:24:713
-0.67,9.208,4.08,-0.005,9.453,2.611,-0.665,-0.245,1.469,0.177,0.13,0.037,211435,2021-05-18 18:19:24:714
-0.67,9.208,4.08,-0.005,9.453,2.611,-0.665,-0.245,1.469,0.177,0.13,0.037,211435,2021-05-18 18:19:24:714
-0.67,9.208,4.08,-0.005,9.453,2.611,-0.665,-0.245,1.469,0.177,0.13,0.037,211436,2021-05-18 18:19:24:715
-0.67,9.208,4.08,-0.005,9.453,2.611,-0.665,-0.245,1.469,0.177,0.13,0.037,211436,2021-05-18 18:19:24:715
-0.67,9.208,4.08,-0.005,9.453,2.611,-0.665,-0.245,1.469,0.177,0.13,0.037,211436,2021-05-18 18:19:24:715
-0.67,9.208,4.08,-0.005,9.453,2.611,-0.665,-0.245,1.469,0.177,0.13,0.037,211436,2021-05-18 18:19:24:715
-0.67,9.208,4.08,-0.005,9.453,2.611,-0.665,-0.245,1.469,0.177,0.13,0.037,211436,2021-05-18 18:19:24:715
-0.67,9.208,4.08,-0.005,9.453,2.611,-0.665,-0.245,1.469,0.177,0.13,0.037,211437,2021-05-18 18:19:24:716
-0.67,9.208,4.08,-0.005,9.453,2.611,-0.665,-0.245,1.469,0.177,0.13,0.037,211437,2021-05-18 18:19:24:716
-0.67,9.208,4.08,-0.005,9.453,2.611,-0.665,-0.245,1.469,0.177,0.13,0.037,211437,2021-05-18 18:19:24:716
-0.67,9.208,4.08,-0.005,9.453,2.611,-0.665,-0.245,1.469,0.177,0.13,0.037,211437,2021-05-18 18:19:24:716
-0.67,9.208,4.08,-0.005,9.453,2.611,-0.665,-0.245,1.469,0.177,0.13,0.037,211437,2021-05-18 18:19:24:716
-0.67,9.208,4.08,-0.005,9.453,2.611,-0.665,-0.245,1.469,0.177,0.13,0.037,211438,2021-05-18 18:19:24:717
0.934,9.287,-2.794,0.882,9.749,0.591,0.052,-0.462,-3.385,-0.398,-0.393,0.282,211711,2021-05-18 18:19:24:990
0.407,10.355,-0.725,0.191,9.743,1.099,0.052,0.586,-1.69,-0.562,0.304,-0.155,212309,2021-05-18 18:19:25:588
0.407,10.355,-0.725,0.191,9.743,1.099,0.052,0.586,-1.69,-0.562,0.304,-0.155,212311,2021-05-18 18:19:25:590
0.407,10.355,-0.725,0.191,9.743,1.099,0.052,0.586,-1.69,-0.562,0.304,-0.155,212311,2021-05-18 18:19:25:590
0.407,10.355,-0.725,0.191,9.743,1.099,0.052,0.586,-1.69,-0.562,0.304,-0.155,212312,2021-05-18 18:19:25:591
0.407,10.355,-0.725,0.191,9.743,1.099,0.052,0.586,-1.69,-0.562,0.304,-0.155,212313,2021-05-18 18:19:25:592
0.747,9.869,-0.474,0.022,9.742,1.128,0.725,0.127,-1.602,-0.58,0.33,-0.219,212313,2021-05-18 18:19:25:592
0.747,9.869,-0.474,0.022,9.742,1.128,0.725,0.127,-1.602,-0.58,0.33,-0.219,212313,2021-05-18 18:19:25:592
0.747,9.869,-0.474,0.022,9.742,1.128,0.725,0.127,-1.602,-0.58,0.33,-0.219,212314,2021-05-18 18:19:25:593
0.747,9.869,-0.474,0.022,9.742,1.128,0.725,0.127,-1.602,-0.58,0.33,-0.219,212314,2021-05-18 18:19:25:593
0.599,8.806,1.264,0.27,9.757,0.951,0.329,-0.951,0.313,0.753,-0.605,-0.352,212591,2021-05-18 18:19:25:870
-0.383,10.398,-0.036,0.674,9.779,0.298,-0.789,0.384,-0.223,-0.525,0.651,0.62,213191,2021-05-18 18:19:26:470
-0.074,9.977,-0.261,0.096,9.771,0.835,-0.171,0.206,-1.096,-0.155,-0.178,0.552,213192,2021-05-18 18:19:26:471
-0.074,9.977,-0.261,0.096,9.771,0.835,-0.171,0.206,-1.096,-0.155,-0.178,0.552,213192,2021-05-18 18:19:26:471
-0.074,9.977,-0.261,0.096,9.771,0.835,-0.171,0.206,-1.096,-0.155,-0.178,0.552,213192,2021-05-18 18:19:26:471
-0.074,9.977,-0.261,0.096,9.771,0.835,-0.171,0.206,-1.096,-0.155,-0.178,0.552,213193,2021-05-18 18:19:26:472
-0.074,9.977,-0.261,0.096,9.771,0.835,-0.171,0.206,-1.096,-0.155,-0.178,0.552,213194,2021-05-18 18:19:26:473
-0.074,9.977,-0.261,0.096,9.771,0.835,-0.171,0.206,-1.096,-0.155,-0.178,0.552,213195,2021-05-18 18:19:26:474
-0.074,9.977,-0.261,0.096,9.771,0.835,-0.171,0.206,-1.096,-0.155,-0.178,0.552,213195,2021-05-18 18:19:26:474
-0.074,9.977,-0.261,0.096,9.771,0.835,-0.171,0.206,-1.096,-0.155,-0.178,0.552,213196,2021-05-18 18:19:26:475
0.546,9.905,0.385,0.455,9.729,1.146,0.606,-0.03,-0.829,0.152,0.274,-0.344,213471,2021-05-18 18:19:26:750
1.13,9.61,-1.549,0.868,9.744,-0.682,0.196,-0.641,-0.735,0.091,0.475,0.724,213971,2021-05-18 18:19:27:250
1.482,10.02,-2.145,1.759,9.461,-1.886,-0.699,1.234,-1.073,-0.679,-0.157,0.073,214470,2021-05-18 18:19:27:749
0.079,9.043,0.965,0.736,9.74,0.875,-0.647,-0.688,-0.015,-0.735,-0.469,-0.114,214970,2021-05-18 18:19:28:249
1.64,8.27,0.105,2.297,9.468,1.115,-0.366,-1.168,-0.231,0.199,-0.774,0.349,215470,2021-05-18 18:19:28:749
0.742,8.593,3.057,0.732,9.549,2.112,-0.28,-0.702,-0.057,-0.662,-0.354,0.19,215971,2021-05-18 18:19:29:250
0.728,6.165,3.685,2.197,8.872,3.554,-2.071,-1.812,0.191,-0.036,-0.142,0.062,216470,2021-05-18 18:19:29:749
0.687,10.582,2.107,1.503,9.297,2.734,-0.815,1.285,-0.627,0.146,0.907,-0.55,216970,2021-05-18 18:19:30:249
0.201,9.29,2.344,0.721,9.253,3.168,-1.313,1.849,0.564,-0.004,-0.046,0.365,217471,2021-05-18 18:19:30:750
-0.939,6.306,2.567,0.206,9.275,3.179,0.106,-2.551,-0.333,-0.298,0.638,0.476,217970,2021-05-18 18:19:31:249
-0.953,9.34,3.304,-0.082,9.163,3.494,-0.67,-1.012,-0.951,0.037,0.366,-0.07,218470,2021-05-18 18:19:31:749
-0.881,10.839,1.01,1.036,9.63,1.534,-0.866,2.175,-0.457,0.019,-1.181,0.067,218970,2021-05-18 18:19:32:249
0.474,8.59,0.646,0.358,9.634,1.797,-0.717,0.057,-0.498,-0.472,-0.741,-0.224,219470,2021-05-18 18:19:32:749
-0.555,8.552,1.065,0.796,9.705,1.16,-1.444,-0.506,0.586,0.204,-0.348,0.46,219971,2021-05-18 18:19:33:250
1.927,9.481,0.589,1.087,9.715,0.778,-0.15,-0.092,-0.28,0.031,-0.537,0.067,220471,2021-05-18 18:19:33:750
1.724,11.217,0.206,2.276,9.539,0.037,-0.459,1.656,0.14,-0.039,0.235,-0.414,220970,2021-05-18 18:19:34:249
0.476,9.201,0.4,1.634,9.646,0.675,-1.06,-0.124,-0.313,-0.001,-0.614,0.104,221479,2021-05-18 18:19:34:758
1.539,14.401,0.601,1.604,9.643,0.779,-1.307,2.728,-0.769,0.468,-0.41,0.178,221970,2021-05-18 18:19:35:249
2.919,8.363,0.532,1.348,9.647,1.135,2.116,-0.625,-0.114,-0.698,-0.627,-0.389,222470,2021-05-18 18:19:35:749
-0.673,9.009,3.589,0.023,9.212,3.364,-0.719,-0.208,0.251,0.002,0.627,0.436,222971,2021-05-18 18:19:36:250
0.989,8.588,5.15,1.783,8.512,4.532,-0.497,0.009,0.685,-0.117,1.076,0.048,223470,2021-05-18 18:19:36:749
1.173,8.617,5.636,1.784,7.898,5.533,-1.031,0.924,0.064,0.484,0.07,-0.014,223970,2021-05-18 18:19:37:249
1.949,9.081,3.778,1.551,8.43,4.764,-0.118,1.382,-1.171,0.178,0.608,0.455,224471,2021-05-18 18:19:37:750
1.149,7.125,2.318,2.414,9.163,2.525,-1.221,-1.996,-0.394,0.98,-0.536,0.194,224970,2021-05-18 18:19:38:249
0.165,9.737,1.575,1.51,9.623,1.13,-1.129,1.047,0.161,0.364,0.032,0.307,225470,2021-05-18 18:19:38:749
1.252,11.511,-1.252,1.518,9.661,-0.73,0.036,1.582,-0.685,0.203,0.214,-0.352,226089,2021-05-18 18:19:39:368
1.724,9.421,-2.016,2.178,9.562,0.021,-0.495,2.525,-1.843,-0.323,1.102,0.024,226470,2021-05-18 18:19:39:749
0.335,9.62,-0.079,1.03,9.727,0.706,-1.493,0.941,-0.632,-0.71,0.274,-1.378,226971,2021-05-18 18:19:40:250
1.52,7.556,6.333,2.313,7.936,5.276,-0.792,-0.38,1.057,-0.831,-1.314,-0.27,227471,2021-05-18 18:19:40:750
0.591,-1.776,9.416,0.704,-0.821,9.747,-0.113,-0.956,-0.33,-1.067,0.702,0.965,227971,2021-05-18 18:19:41:250
-2.045,-4.271,7.547,-1.08,-4.147,8.821,-0.965,-0.124,-1.274,-0.826,0.423,-0.645,228471,2021-05-18 18:19:41:750
-0.199,-8.741,5.112,-0.136,-8.372,5.106,0.566,-1.753,-0.313,-0.226,-0.018,-0.277,229099,2021-05-18 18:19:42:378
-0.589,-9.167,1.068,0.185,-9.024,3.834,-0.774,-0.143,-2.767,-0.588,-0.423,0.447,229470,2021-05-18 18:19:42:749
-1.307,-9.701,0.828,-0.974,-9.688,1.165,-0.939,0.096,-0.99,0.471,0.833,0.27,229970,2021-05-18 18:19:43:249
1.721,-8.454,3.472,0.618,-9.467,2.482,1.108,0.546,-0.198,0.318,-0.855,-0.339,230470,2021-05-18 18:19:43:749
-1.946,-2.885,11.993,-1.595,-3.965,8.826,-0.854,1.633,2.976,2.633,2.417,0.258,230970,2021-05-18 18:19:44:249
-3.373,7.64,5.583,-4.259,6.609,5.862,1.861,1.906,0.03,-0.939,-0.756,0.101,231470,2021-05-18 18:19:44:749
-0.34,6.088,4.18,-1.569,8.367,4.868,0.584,-2.358,-0.669,0.513,-0.412,0.243,231970,2021-05-18 18:19:45:249
3.017,9.227,3.191,3.158,9.106,1.81,-0.558,-0.676,0.989,0.857,-0.26,-0.131,232471,2021-05-18 18:19:45:750
2.037,9.357,-0.467,2.696,9.413,0.551,-0.9,-0.334,-0.936,0.043,0.128,-0.263,232971,2021-05-18 18:19:46:250
2.282,9.673,-0.663,3.436,9.166,-0.588,-0.844,0.866,-0.56,0.258,-0.061,0.631,233470,2021-05-18 18:19:46:749
2.16,9.797,-0.318,3.771,9.048,-0.281,-0.598,0.823,-0.603,0.124,0.439,-0.258,233970,2021-05-18 18:19:47:249
0.52,10.101,-0.651,2.637,9.435,-0.454,-2.117,0.667,-0.197,0.579,-0.854,1.085,234471,2021-05-18 18:19:47:750
-0.005,9.653,-0.151,0.792,9.766,-0.414,-1.971,-0.975,0.017,-0.635,-0.46,0.642,234970,2021-05-18 18:19:48:249
0.208,9.522,1.132,1.449,9.648,0.993,-1.159,0.064,0.053,-0.007,-0.257,0.156,235470,2021-05-18 18:19:48:749
0.663,11.212,-1.044,0.84,9.766,-0.313,-0.768,0.892,-0.701,0.233,-0.53,-0.067,235970,2021-05-18 18:19:49:249
-1.343,8.739,-0.728,-0.609,9.744,-0.924,-0.734,-1.005,0.196,-0.035,-0.973,-0.66,236470,2021-05-18 18:19:49:749
1.358,9.79,-1.211,2.397,9.489,-0.622,-1.176,0.499,-0.091,0.026,-0.122,1.418,236971,2021-05-18 18:19:50:250
2.035,9.914,-0.409,1.281,9.702,-0.632,0.703,-0.026,-0.592,-0.326,-0.453,-1.819,237471,2021-05-18 18:19:50:750
-1.422,9.711,-1.906,0.11,9.695,-1.474,0.672,-0.363,-0.088,0.682,-0.082,0.699,237970,2021-05-18 18:19:51:249
1.908,6.539,-4.42,0.509,8.548,-4.779,1.485,-1.987,0.408,-0.221,0.101,0.894,238471,2021-05-18 18:19:51:750
-1.118,7.556,-7.01,-0.474,8.043,-5.59,3.118,2.099,-0.041,-1.593,-3.587,1.685,238970,2021-05-18 18:19:52:249
3.747,13.001,-3.191,1.55,9.682,0.155,-5.459,2.025,-1.598,-0.508,-1.939,0.483,239470,2021-05-18 18:19:52:749
1.056,11.959,1.231,1.895,9.55,1.175,-1.009,1.516,0.659,0.211,1.786,0.115,239971,2021-05-18 18:19:53:250
2.48,9.175,2.15,2.531,9.075,2.721,0.394,-0.04,-0.479,-0.827,-2.239,0.177,240471,2021-05-18 18:19:53:750
0.553,-0.132,4.865,0.714,3.795,9.014,-0.547,-2.981,13.357,-1.448,1.464,1.064,240971,2021-05-18 18:19:54:250
-0.182,-0.539,14.523,-0.916,-0.737,9.736,1.17,-0.326,4.963,2.938,-0.178,-1.161,241470,2021-05-18 18:19:54:749
-1.848,0.749,9.22,-0.179,0.166,9.804,-2.182,0.305,-1.297,-1.068,1.051,-1.249,241970,2021-05-18 18:19:55:249
-0.436,0.74,7.64,-0.682,-0.271,9.779,0.247,1.011,-2.139,0.99,0.589,-0.184,242470,2021-05-18 18:19:55:749
2.861,3.622,2.947,2.818,3.931,8.531,0.043,-0.309,-5.583,-1.213,3.889,-5.073,242970,2021-05-18 18:19:56:249
0.103,9.701,5.171,2.897,4.044,8.451,1.162,0.654,2.587,0.491,2.339,-0.607,243470,2021-05-18 18:19:56:749
